"Time (s)","Acceleration x (m/s^2)","Acceleration y (m/s^2)","Acceleration z (m/s^2)","Absolute acceleration (m/s^2)"
3.468691600E-2,1.215405083E1,-5.332800293E1,-1.287000060E0,5.471063166E1
3.664849300E-2,1.498995113E1,-5.536005402E1,-3.664050102E0,5.747050964E1
3.861283900E-2,1.782600021E1,-5.708400345E1,-7.687950134E0,6.029472871E1
4.057569800E-2,2.096895027E1,-5.804205322E1,-1.274700069E1,6.301636965E1
4.253899300E-2,2.338395119E1,-5.792805099E1,-1.623495102E1,6.454488283E1
4.450216700E-2,2.464905167E1,-5.696895218E1,-1.692495155E1,6.433887818E1
4.646537700E-2,2.503200150E1,-5.509095383E1,-1.481700039E1,6.229893894E1
4.842847600E-2,2.399700165E1,-5.217795181E1,-1.136700058E1,5.854573807E1
5.039160800E-2,2.200395012E1,-4.892100143E1,-7.189950466E0,5.412147069E1
5.235445000E-2,1.924395180E1,-4.527900314E1,-3.433950186E0,4.931845314E1
5.431737700E-2,1.598700047E1,-4.152300262E1,-4.819500148E-1,4.449692356E1
5.628008500E-2,1.234500027E1,-3.795900345E1,1.701000094E0,3.995220114E1
5.824288200E-2,9.739050865E0,-3.485400009E1,3.004050255E0,3.631356154E1
6.020623100E-2,7.554000378E0,-3.209505081E1,3.847950220E0,3.319581192E1
6.216941800E-2,5.830050468E0,-2.991000175E1,4.345950127E0,3.078124390E1
6.413243200E-2,4.680000305E0,-2.826195145E1,4.843950272E0,2.905347065E1
6.609549700E-2,4.182000160E0,-2.684400177E1,5.112000465E0,2.764456737E1
6.805824500E-2,4.297049999E0,-2.546400070E1,5.649000168E0,2.643465856E1
7.002109700E-2,4.603050232E0,-2.427600098E1,6.186000347E0,2.547113847E1
7.198403200E-2,5.062950134E0,-2.320305061E1,6.339000225E0,2.458043827E1
7.394694200E-2,5.407950401E0,-2.232105064E1,6.415950298E0,2.384616631E1
7.590986700E-2,5.715000153E0,-2.151600075E1,6.339000225E0,2.314697472E1
7.787278800E-2,5.944950104E0,-2.086500168E1,6.186000347E0,2.256008260E1
7.983603200E-2,6.175050259E0,-2.044305038E1,6.031950474E0,2.219085355E1
8.179917700E-2,6.442950249E0,-1.994505119E1,6.109050274E0,2.183202167E1
8.376206400E-2,6.520050526E0,-1.948500061E1,5.956050396E0,2.139277551E1
8.572502600E-2,6.595950127E0,-1.914000130E1,5.725950241E0,2.103883823E1
8.768794200E-2,6.520050526E0,-1.883295059E1,5.649000168E0,2.071478433E1
8.965087200E-2,6.520050526E0,-1.864200020E1,5.611050129E0,2.053093066E1
9.161380300E-2,6.405000210E0,-1.845000076E1,5.380950451E0,2.025786720E1
9.357672700E-2,6.175050259E0,-1.822005081E1,5.188950062E0,1.992552885E1
9.553969400E-2,6.021000385E0,-1.810500145E1,4.921050072E0,1.970432077E1
9.750264800E-2,5.944950104E0,-1.810500145E1,4.614000320E0,1.960669549E1
9.946570100E-2,5.868000507E0,-1.810500145E1,4.384050369E0,1.953060176E1
1.014287250E-1,6.021000385E0,-1.814295006E1,4.153950214E0,1.956206494E1
1.033919430E-1,6.366000175E0,-1.837305069E1,4.000950336E0,1.985201636E1
1.053551380E-1,6.865050316E0,-1.860300064E1,3.808950186E0,2.019179661E1
1.073185560E-1,7.324050426E0,-1.902495003E1,3.426000118E0,2.067191126E1
1.092819080E-1,7.593000412E0,-1.929300117E1,3.157950163E0,2.097251055E1
1.112449830E-1,7.822950363E0,-1.948500061E1,2.928000212E0,2.119992892E1
1.132081400E-1,8.014050484E0,-1.948500061E1,2.889000177E0,2.126585470E1
1.151713330E-1,8.167950630E0,-1.956195068E1,3.004050255E0,2.141050326E1
1.171345180E-1,8.282999992E0,-1.956195068E1,3.234000206E0,2.148806089E1
1.190974420E-1,8.320950508E0,-1.944705009E1,3.426000118E0,2.142809958E1
1.210604430E-1,8.167950630E0,-1.925505066E1,3.426000118E0,2.119457172E1
1.230234870E-1,8.053050041E0,-1.894799995E1,3.771000147E0,2.093080886E1
1.249865180E-1,7.822950363E0,-1.856505013E1,3.847950220E0,2.051015259E1
1.269492830E-1,7.438950539E0,-1.810500145E1,3.924000263E0,1.996313704E1
1.289121300E-1,7.248000145E0,-1.764495087E1,3.886050224E0,1.946738769E1
1.308746610E-1,7.056000233E0,-1.718505096E1,4.000950336E0,1.900317656E1
1.328372840E-1,6.711000443E0,-1.660995102E1,4.078050137E0,1.837276497E1
1.348000780E-1,6.595950127E0,-1.626495171E1,4.192950249E0,1.804538844E1
1.367628210E-1,6.481050491E0,-1.576695061E1,4.231050014E0,1.756424012E1
1.387258010E-1,6.366000175E0,-1.526895046E1,4.269000053E0,1.708482274E1
1.406887250E-1,6.213000298E0,-1.473195076E1,4.192950249E0,1.652914328E1
1.426516490E-1,6.097950459E0,-1.423395061E1,4.231050014E0,1.605279210E1
1.446145730E-1,5.944950104E0,-1.365900040E1,4.116000175E0,1.545484329E1
1.465776300E-1,5.830050468E0,-1.323795033E1,4.078050137E0,1.502874946E1
1.485406480E-1,5.715000153E0,-1.277805042E1,4.000950336E0,1.455841348E1
1.505035510E-1,5.560950279E0,-1.227900028E1,3.886050224E0,1.402852103E1
1.524664910E-1,5.446050167E0,-1.174305058E1,3.579000235E0,1.343011325E1
1.544295900E-1,5.215950012E0,-1.116795063E1,3.081000090E0,1.270518860E1
1.563926430E-1,5.025000095E0,-1.063095093E1,2.620950222E0,1.204728698E1
1.583554090E-1,4.833000183E0,-9.979950905E0,2.161050081E0,1.129723189E1
1.603182600E-1,4.488000393E0,-9.328050613E0,1.701000094E0,1.049038022E1
1.622812090E-1,4.219950199E0,-8.638050079E0,1.356000066E0,9.708894120E0
1.642441190E-1,3.990000248E0,-8.062950134E0,8.200500607E-1,9.033479338E0
1.662082610E-1,3.682950258E0,-7.372950554E0,1.680000126E-1,8.243345588E0
1.681720420E-1,3.492000103E0,-6.837000370E0,-4.440000355E-1,7.689978856E0
1.701346840E-1,3.337950230E0,-6.339000225E0,-9.420000315E-1,7.225800969E0
1.720976590E-1,3.147000074E0,-5.839950085E0,-1.516950130E0,6.805127784E0
1.740605380E-1,2.764050245E0,-5.149950027E0,-1.861950040E0,6.134233203E0
1.760234380E-1,2.572050095E0,-4.537050247E0,-2.245050192E0,5.678073353E0
1.779863640E-1,2.457000017E0,-4.039050102E0,-2.475000143E0,5.336328375E0
1.799492820E-1,2.341950178E0,-3.502050161E0,-2.514000177E0,4.906045542E0
1.819124310E-1,2.188950062E0,-3.042000055E0,-2.629050016E0,4.577900250E0
1.838755130E-1,1.843950033E0,-2.506050110E0,-2.629050016E0,4.073369964E0
1.858384050E-1,1.459950089E0,-2.083950043E0,-2.514000177E0,3.576939884E0
1.878013560E-1,1.269000053E0,-1.701000094E0,-2.245050192E0,3.089338573E0
1.897644080E-1,9.240000248E-1,-1.356000066E0,-1.939050078E0,2.540162875E0
1.917274310E-1,6.169500351E-1,-1.048950076E0,-1.632000089E0,2.035767152E0
1.936894370E-1,2.719500065E-1,-7.810500264E-1,-1.363950014E0,1.595103630E0
1.956517410E-1,4.200000316E-2,-5.130000114E-1,-1.249050021E0,1.350947433E0
1.976147990E-1,4.050000105E-3,-3.589500189E-1,-9.040500522E-1,9.727116815E-1
1.995776150E-1,-7.200000435E-2,-2.059500068E-1,-5.970000029E-1,6.356165584E-1
2.015396570E-1,-7.200000435E-2,-5.295000225E-2,-2.520000041E-1,2.673793287E-1
2.035019250E-1,-1.870500147E-1,1.759500057E-1,-2.205000073E-2,2.577446702E-1
2.054645990E-1,-2.250000089E-1,3.679500222E-1,3.220500052E-1,5.382642741E-1
2.074271540E-1,-1.870500147E-1,4.440000355E-1,5.509500504E-1,7.318945946E-1
2.093903400E-1,-1.099500060E-1,6.360000372E-1,6.660000086E-1,9.274379023E-1
2.113533270E-1,-7.200000435E-2,7.129500508E-1,7.429500222E-1,1.032209529E0
2.133166440E-1,4.050000105E-3,8.659500480E-1,7.429500222E-1,1.140991071E0
2.152798650E-1,4.200000316E-2,9.040500522E-1,6.660000086E-1,1.123666547E0
2.172438180E-1,1.189500093E-1,1.018950105E0,5.509500504E-1,1.164454541E0
2.192075570E-1,1.189500093E-1,1.173000097E0,2.830500007E-1,1.212516241E0
2.211707160E-1,1.189500093E-1,1.363950014E0,1.300500035E-1,1.375289696E0
2.231340350E-1,8.100000024E-2,1.479000092E0,-6.105000153E-2,1.482474072E0
2.250970250E-1,-7.200000435E-2,1.708950043E0,-4.060500264E-1,1.758001955E0
2.270601120E-1,-1.870500147E-1,1.863000035E0,-8.269500136E-1,2.046852013E0
2.290230520E-1,-3.400500119E-1,2.053950071E0,-1.287000060E0,2.447593524E0
2.309860350E-1,-4.549500346E-1,2.245950222E0,-1.708950043E0,2.858632922E0
2.329489430E-1,-4.170000255E-1,2.361000061E0,-2.245050192E0,3.284579223E0
2.349118760E-1,-5.320500135E-1,2.551950216E0,-2.667000055E0,3.729398935E0
2.368746170E-1,-6.469500065E-1,2.629050016E0,-3.241950035E0,4.223823899E0
2.388374150E-1,-6.469500065E-1,2.782050133E0,-3.702000141E0,4.675804989E0
2.408003130E-1,-6.469500065E-1,2.821050167E0,-4.162050247E0,5.069470447E0
2.427631820E-1,-6.079500318E-1,2.935950041E0,-4.698000431E0,5.573204997E0
2.447261620E-1,-4.549500346E-1,2.974050045E0,-5.119950294E0,5.938505218E0
2.466890760E-1,-3.400500119E-1,3.051000118E0,-5.235000134E0,6.068728214E0
2.486520010E-1,-1.480500102E-1,3.051000118E0,-5.388000488E0,6.193631389E0
2.506149220E-1,4.200000316E-2,3.012000084E0,-5.427000046E0,6.206950781E0
2.525780710E-1,2.719500065E-1,2.935950041E0,-5.350050449E0,6.108747765E0
2.545411530E-1,5.410500169E-1,2.859000206E0,-5.043000221E0,5.822239134E0
2.565051440E-1,8.089500666E-1,2.743950129E0,-4.698000431E0,5.500442761E0
2.584688590E-1,1.077000022E0,2.629050016E0,-4.276950359E0,5.134601972E0
2.604318280E-1,1.269000053E0,2.437050104E0,-3.817050219E0,4.703131586E0
2.623950150E-1,1.422000051E0,2.284050226E0,-3.319050074E0,4.272594407E0
2.643580730E-1,1.651950121E0,2.131050110E0,-2.743950129E0,3.847021716E0
2.663211690E-1,1.882050037E0,1.939050078E0,-2.092050076E0,3.417411457E0
2.682841750E-1,2.111999989E0,1.747950077E0,-1.516950130E0,3.133210992E0
2.702472230E-1,2.304000139E0,1.594050050E0,-9.040500522E-1,2.943929126E0
2.722099890E-1,2.457000017E0,1.402950048E0,-3.670500219E-1,2.853041122E0
2.741728380E-1,2.610000134E0,1.249050021E0,1.680000126E-1,2.898353094E0
2.761348280E-1,2.802000046E0,1.057950020E0,5.509500504E-1,3.045325674E0
2.780970690E-1,2.878050089E0,9.430500269E-1,1.126049995E0,3.231176916E0
2.800599540E-1,2.992950201E0,6.739500165E-1,1.471050024E0,3.402344442E0
2.820226630E-1,3.070050240E0,5.590500236E-1,1.701000094E0,3.554032460E0
2.839857580E-1,3.031950235E0,3.679500222E-1,2.085000038E0,3.698017659E0
2.859487400E-1,2.955000162E0,1.759500057E-1,2.430000067E0,3.829867450E0
2.879124190E-1,2.955000162E0,6.105000153E-2,2.620950222E0,3.950333293E0
2.898758940E-1,2.878050089E0,-9.105000645E-2,2.736000061E0,3.972047174E0
2.918389410E-1,2.764050245E0,-1.680000126E-1,2.851050138E0,3.974504328E0
2.938020870E-1,2.610000134E0,-3.210000098E-1,2.736000061E0,3.794843612E0
2.957649720E-1,2.380050182E0,-4.740000367E-1,2.659050226E0,3.599980974E0
2.977279330E-1,2.035050154E0,-6.280500293E-1,2.773950100E0,3.497238214E0
2.996909840E-1,1.729050040E0,-7.810500264E-1,2.698050022E0,3.298352181E0
3.016540080E-1,1.459950089E0,-8.959500194E-1,2.583000183E0,3.099366169E0
3.036170990E-1,1.306950092E0,-9.340500236E-1,2.430000067E0,2.912982718E0
3.055801670E-1,1.114950061E0,-9.340500236E-1,2.275950193E0,2.701020616E0
3.075427510E-1,1.000050068E0,-9.730500579E-1,2.314950228E0,2.702946746E0
3.095054770E-1,8.089500666E-1,-9.730500579E-1,2.200050116E0,2.538000618E0
3.114673070E-1,6.940500140E-1,-8.959500194E-1,2.275950193E0,2.542514728E0
3.134294000E-1,5.410500169E-1,-9.340500236E-1,2.275950193E0,2.518954912E0
3.153921630E-1,4.639500082E-1,-8.959500194E-1,2.314950228E0,2.525266442E0
3.173547190E-1,3.870000243E-1,-8.190000653E-1,2.353049994E0,2.521383429E0
3.193177060E-1,2.719500065E-1,-7.810500264E-1,2.353049994E0,2.494161226E0
3.212805660E-1,1.960500032E-1,-7.039500475E-1,2.275950193E0,2.390382931E0
3.232436800E-1,2.340000123E-1,-6.660000086E-1,2.238000154E0,2.346690586E0
3.252067190E-1,2.340000123E-1,-7.039500475E-1,2.238000154E0,2.357741794E0
3.271697730E-1,2.719500065E-1,-7.039500475E-1,2.085000038E0,2.217369530E0
3.291328120E-1,2.719500065E-1,-7.429500222E-1,2.085000038E0,2.230057555E0
3.310958950E-1,3.870000243E-1,-7.810500264E-1,2.008050203E0,2.189080579E0
3.330589650E-1,5.020500422E-1,-8.190000653E-1,1.930950046E0,2.156706617E0
3.350226290E-1,5.790000558E-1,-9.340500236E-1,1.893000126E0,2.188867284E0
3.369861190E-1,6.940500140E-1,-1.011000037E0,1.855050087E0,2.223743988E0
3.389492570E-1,7.320000529E-1,-9.730500579E-1,1.893000126E0,2.250799851E0
3.409125010E-1,7.699500322E-1,-1.011000037E0,1.855050087E0,2.248589547E0
3.428755490E-1,8.089500666E-1,-1.087950110E0,1.893000126E0,2.328408282E0
3.448386550E-1,8.470500112E-1,-1.087950110E0,1.893000126E0,2.341917727E0
3.468014110E-1,8.089500666E-1,-1.126049995E0,1.969950080E0,2.408960797E0
3.487642700E-1,8.850000501E-1,-1.164000034E0,1.969950080E0,2.453329266E0
3.507273480E-1,8.470500112E-1,-1.240950108E0,2.046000004E0,2.538418190E0
3.526903550E-1,8.089500666E-1,-1.240950108E0,1.969950080E0,2.464763822E0
3.546534440E-1,7.699500322E-1,-1.240950108E0,2.085000038E0,2.545585469E0
3.566165090E-1,8.089500666E-1,-1.279050112E0,2.085000038E0,2.576352957E0
3.585794540E-1,8.089500666E-1,-1.279050112E0,2.238000154E0,2.701668760E0
3.605424340E-1,7.320000529E-1,-1.240950108E0,2.238000154E0,2.661658494E0
3.625053130E-1,7.320000529E-1,-1.240950108E0,2.200050116E0,2.629829226E0
3.644682460E-1,6.940500140E-1,-1.279050112E0,2.122950077E0,2.573828207E0
3.664313020E-1,6.940500140E-1,-1.240950108E0,2.085000038E0,2.523665539E0
3.683943210E-1,6.550500393E-1,-1.279050112E0,2.008050203E0,2.469276283E0
3.703574080E-1,7.320000529E-1,-1.279050112E0,1.930950046E0,2.429065941E0
3.723204750E-1,8.089500666E-1,-1.240950108E0,1.893000126E0,2.403706899E0
3.742834140E-1,8.850000501E-1,-1.318050027E0,1.855050087E0,2.441657590E0
3.762463950E-1,1.000050068E0,-1.318050027E0,1.740000129E0,2.401032374E0
3.782089480E-1,1.000050068E0,-1.318050027E0,1.701000094E0,2.372921687E0
3.801716260E-1,9.619500637E-1,-1.279050112E0,1.548000097E0,2.226571673E0
3.821345450E-1,9.240000248E-1,-1.203000069E0,1.510050058E0,2.140382300E0
3.840973930E-1,9.240000248E-1,-1.087950110E0,1.432950020E0,2.022562050E0
3.860603350E-1,8.850000501E-1,-1.048950076E0,1.279950023E0,1.876644189E0
3.880232450E-1,9.619500637E-1,-9.730500579E-1,1.203000069E0,1.821917535E0
3.899861700E-1,1.077000022E0,-9.340500236E-1,8.580000401E-1,1.663893795E0
3.919490910E-1,1.230000019E0,-8.959500194E-1,6.280500293E-1,1.646230034E0
3.939126000E-1,1.345050097E0,-8.190000653E-1,3.220500052E-1,1.607369614E0
3.958759370E-1,1.422000051E0,-7.810500264E-1,-2.205000073E-2,1.622531815E0
3.978389390E-1,1.651950121E0,-6.660000086E-1,-4.440000355E-1,1.835655535E0
3.998020300E-1,1.843950033E0,-5.890500546E-1,-6.739500165E-1,2.049717131E0
4.017651490E-1,1.959000111E0,-4.740000367E-1,-7.510500550E-1,2.150914609E0
4.037282590E-1,2.074050188E0,-3.589500189E-1,-7.120500207E-1,2.222058624E0
4.056911060E-1,2.035050154E0,-2.830500007E-1,-6.739500165E-1,2.162349430E0
4.076540300E-1,2.035050154E0,-2.440500110E-1,-4.440000355E-1,2.097170848E0
4.096168180E-1,1.959000111E0,-1.680000126E-1,-1.759500057E-1,1.974047578E0
4.115796460E-1,1.959000111E0,-1.680000126E-1,1.680000126E-1,1.973354870E0
4.135420450E-1,1.882050037E0,-1.290000081E-1,4.750500321E-1,1.945360090E0
4.155045690E-1,1.729050040E0,-1.290000081E-1,8.959500194E-1,1.951661211E0
4.174677400E-1,1.614000082E0,-9.105000645E-2,1.356000066E0,2.109981646E0
4.194307210E-1,1.537050128E0,-9.105000645E-2,1.663050056E0,2.266395527E0
4.213928500E-1,1.459950089E0,-9.105000645E-2,2.046000004E0,2.515126316E0
4.233552420E-1,1.384050012E0,-1.500000060E-2,2.545050144E0,2.897084685E0
4.253187960E-1,1.422000051E0,-1.500000060E-2,2.889000177E0,3.220035896E0
4.272820090E-1,1.498950124E0,-5.295000225E-2,3.273000240E0,3.600303564E0
4.292449290E-1,1.614000082E0,-9.105000645E-2,3.541050196E0,3.892598471E0
4.312079350E-1,1.690050125E0,-9.105000645E-2,3.808950186E0,4.168052429E0
4.331711290E-1,1.651950121E0,-1.290000081E-1,4.039050102E0,4.365719406E0
4.351342880E-1,1.690050125E0,-1.290000081E-1,4.231050014E0,4.557926574E0
4.370966760E-1,1.804950118E0,-1.290000081E-1,4.269000053E0,4.636684957E0
4.390592900E-1,1.996950150E0,-1.680000126E-1,4.308000088E0,4.751304943E0
4.410222650E-1,2.149950027E0,-2.440500110E-1,4.192950249E0,4.718334168E0
4.429851340E-1,2.188950062E0,-3.589500189E-1,4.153950214E0,4.709102873E0
4.449478970E-1,2.227050066E0,-3.979500234E-1,4.039050102E0,4.629475342E0
4.469106840E-1,2.188950062E0,-5.130000114E-1,3.771000147E0,4.390343209E0
4.488735840E-1,2.111999989E0,-5.890500546E-1,3.426000118E0,4.067554637E0
4.508364510E-1,2.074050188E0,-6.280500293E-1,2.965950251E0,3.673280810E0
4.527992490E-1,2.111999989E0,-6.280500293E-1,2.314950228E0,3.195932626E0
4.547620680E-1,2.074050188E0,-8.190000653E-1,1.510050058E0,2.693083079E0
4.567259030E-1,2.149950027E0,-8.959500194E-1,5.899500251E-1,2.402717751E0
4.586894130E-1,2.227050066E0,-1.048950076E0,-3.289500177E-1,2.483597466E0
4.606520570E-1,2.265000105E0,-1.087950110E0,-1.287000060E0,2.823159590E0
4.626149540E-1,2.341950178E0,-1.203000069E0,-2.130000114E0,3.386567627E0
4.645777010E-1,2.457000017E0,-1.279050112E0,-2.820000172E0,3.952874807E0
4.665404920E-1,2.572050095E0,-1.432950020E0,-3.472050190E0,4.552353234E0
4.685034420E-1,2.686950207E0,-1.585950017E0,-4.047000408E0,5.110102854E0
4.704663410E-1,2.839950085E0,-1.816050053E0,-4.621950150E0,5.720644847E0
4.724289540E-1,2.955000162E0,-2.046000004E0,-5.158050060E0,6.286781561E0
4.743916510E-1,3.070050240E0,-2.275950193E0,-5.656950474E0,6.826876769E0
4.763546120E-1,3.070050240E0,-2.544000149E0,-6.117000103E0,7.301700863E0
4.783174950E-1,3.070050240E0,-2.851050138E0,-6.652950287E0,7.862279751E0
4.802802600E-1,3.070050240E0,-3.157050133E0,-6.997950554E0,8.268221451E0
4.822430500E-1,2.917050123E0,-3.541050196E0,-7.228050232E0,8.561128901E0
4.842061290E-1,2.686950207E0,-3.847050190E0,-7.495950222E0,8.843572033E0
4.861691240E-1,2.494950056E0,-4.231050014E0,-7.650000572E0,9.091153324E0
4.881319010E-1,2.111999989E0,-4.651950359E0,-7.534950256E0,9.103661981E0
4.900947420E-1,1.767000079E0,-5.074050426E0,-7.228050232E0,9.006274877E0
4.920574680E-1,1.345050097E0,-5.610000134E0,-6.538050175E0,8.719367027E0
4.940202180E-1,9.619500637E-1,-6.568950176E0,-5.617950439E0,8.697000718E0
4.959824950E-1,-1.870500147E-1,-7.717950344E0,-4.276950359E0,8.825760568E0
4.979449110E-1,-1.567050099E0,-8.830050468E0,-2.896950245E0,9.424317376E0
4.999076940E-1,-2.563050032E0,-1.005600071E1,-1.900950074E0,1.055016526E1
5.018703700E-1,-3.445050240E0,-1.147395039E1,-1.479000092E0,1.207092995E1
5.038331860E-1,-3.790050268E0,-1.339095020E1,-9.420000315E-1,1.394881330E1
5.057959710E-1,-4.363950253E0,-1.549905109E1,-6.360000372E-1,1.611425278E1
5.077585580E-1,-4.939050198E0,-1.768395042E1,-2.520000041E-1,1.836245690E1
5.097212030E-1,-5.437950134E0,-2.017500114E1,2.449500114E-1,2.089645839E1
5.116834080E-1,-6.013050079E0,-2.281905174E1,7.810500264E-1,2.361092825E1
5.136457420E-1,-6.433950424E0,-2.573205185E1,1.624950051E0,2.657394726E1
5.156087650E-1,-6.817050457E0,-2.868405151E1,2.353049994E0,2.957674479E1
5.175715860E-1,-7.201050282E0,-3.151995087E1,2.928000212E0,3.246437452E1
5.195345720E-1,-7.546050549E0,-3.454800034E1,3.963000298E0,3.558388087E1
5.214975090E-1,-7.315950394E0,-3.784395218E1,5.151000023E0,3.888728131E1
5.234606100E-1,-6.931950092E0,-4.121700287E1,5.917050362E0,4.221261355E1
5.254236630E-1,-6.013050079E0,-4.420605087E1,6.339000225E0,4.506123199E1
5.273867000E-1,-5.169000149E0,-4.639095306E1,6.492000103E0,4.712732916E1
5.293497420E-1,-3.790050268E0,-4.823100281E1,6.568950176E0,4.882361334E1
5.313123290E-1,-2.332950115E0,-4.918905258E1,6.223950386E0,4.963610690E1
5.332750500E-1,-6.079500318E-1,-4.984005356E1,5.380950451E0,5.013337381E1
5.352385470E-1,1.153950095E0,-5.007000351E1,4.269000053E0,5.026491036E1
5.372018170E-1,2.764050245E0,-5.014695358E1,3.157950163E0,5.032225727E1
5.391649880E-1,4.372950077E0,-5.007000351E1,1.777950048E0,5.029203764E1
5.411281950E-1,6.097950459E0,-5.018505096E1,3.220500052E-1,5.055519811E1
5.430919690E-1,7.746000290E0,-5.010900116E1,-1.287000060E0,5.072049770E1
5.450555770E-1,9.586050034E0,-4.991700363E1,-3.280050039E0,5.093484402E1
5.470185640E-1,1.154100037E1,-4.976400375E1,-5.617950439E0,5.139272445E1
5.489817330E-1,1.433805084E1,-4.960995102E1,-8.263050079E0,5.229727468E1
5.509446180E-1,1.755795097E1,-4.880595398E1,-1.090695095E1,5.300249395E1
5.529075830E-1,1.981905174E1,-4.708095169E1,-1.324500084E1,5.277159152E1
5.548707230E-1,2.070105171E1,-4.489605331E1,-1.516200066E1,5.171146303E1
5.568338120E-1,2.043300056E1,-4.275000381E1,-1.596705055E1,5.000017042E1
5.587967080E-1,1.970400047E1,-4.071795273E1,-1.562205029E1,4.785653314E1
5.607596600E-1,1.805595016E1,-3.853395081E1,-1.439505100E1,4.492327008E1
5.627225190E-1,1.587195110E1,-3.642600250E1,-1.247895050E1,4.164728918E1
5.646854150E-1,1.353405094E1,-3.450900269E1,-9.757950783E0,3.833091970E1
5.666480270E-1,1.138695049E1,-3.286095047E1,-6.538050175E0,3.538715597E1
5.686107230E-1,9.241050720E0,-3.155805206E1,-3.012000084E0,3.302089964E1
5.705727840E-1,7.210050106E0,-3.048495102E1,-6.105000153E-2,3.132604010E1
5.725350310E-1,5.446050167E0,-2.998695183E1,1.663050056E0,3.052281897E1
5.744978230E-1,4.143000126E0,-2.979495049E1,2.659050226E0,3.019890847E1
5.764604700E-1,3.645000219E0,-2.964195061E1,4.000950336E0,3.013202393E1
5.784233060E-1,3.645000219E0,-2.956500053E1,4.996950150E0,3.020504584E1
5.803860860E-1,4.143000126E0,-2.960295105E1,5.956050396E0,3.047906982E1
5.823490340E-1,4.564949989E0,-2.960295105E1,6.531000137E0,3.065660519E1
5.843119320E-1,5.025000095E0,-2.956500053E1,6.876000404E0,3.076717836E1
5.862746150E-1,5.293050289E0,-2.933505058E1,7.066950321E0,3.063500222E1
5.882373750E-1,5.523000240E0,-2.899005127E1,7.066950321E0,3.034581340E1
5.902001900E-1,5.599950314E0,-2.860695076E1,7.144050121E0,3.001257282E1
5.921629890E-1,5.715000153E0,-2.830005074E1,7.144050121E0,2.974208383E1
5.941261140E-1,5.944950104E0,-2.787900162E1,6.991050243E0,2.935056978E1
5.960891430E-1,6.136050224E0,-2.745705223E1,6.760950089E0,2.893529464E1
5.980521930E-1,6.136050224E0,-2.695905113E1,6.301050186E0,2.835744671E1
6.000152300E-1,6.021000385E0,-2.638395119E1,6.031950474E0,2.772633680E1
6.019779990E-1,5.944950104E0,-2.577105141E1,5.649000168E0,2.704442133E1
6.039408470E-1,5.791050434E0,-2.511900139E1,5.304000378E0,2.631792005E1
6.059039620E-1,5.560950279E0,-2.446800041E1,4.959000111E0,2.557731210E1
6.078669990E-1,5.331000328E0,-2.385405159E1,4.653000355E0,2.488143392E1
6.098300430E-1,5.025000095E0,-2.320305061E1,4.498950005E0,2.416345867E1
6.117930810E-1,4.795050144E0,-2.262795067E1,4.231050014E0,2.351421786E1
6.137558500E-1,4.527000427E0,-2.212995148E1,4.000950336E0,2.293983629E1
6.157186980E-1,4.411950111E0,-2.174595070E1,3.847950220E0,2.252017754E1
6.176819490E-1,4.182000160E0,-2.128605080E1,3.618000269E0,2.199261262E1
6.196450810E-1,4.105050087E0,-2.094105148E1,3.541050196E0,2.163141488E1
6.216077740E-1,4.066950321E0,-2.063505173E1,3.388050079E0,2.130315301E1
6.235706060E-1,4.027950287E0,-2.032800102E1,3.234000206E0,2.097404983E1
6.255335890E-1,3.990000248E0,-1.994505119E1,3.081000090E0,2.057225633E1
6.274965270E-1,4.027950287E0,-1.967700005E1,3.118950129E0,2.032576110E1
6.294594490E-1,4.027950287E0,-1.933200073E1,3.157950163E0,1.999808203E1
6.314223760E-1,3.952050209E0,-1.898700142E1,3.234000206E0,1.966173139E1
6.333853080E-1,3.760050297E0,-1.856505013E1,3.349050045E0,1.923577918E1
6.353482320E-1,3.645000219E0,-1.810500145E1,3.463950157E0,1.879031811E1
6.373109740E-1,3.568050146E0,-1.772205162E1,3.694050074E0,1.845123577E1
6.392737700E-1,3.337950230E0,-1.718505096E1,3.694050074E0,1.789172698E1
6.412370290E-1,2.992950201E0,-1.657200050E1,3.502950191E0,1.720057010E1
6.432001530E-1,2.839950085E0,-1.615005112E1,3.426000118E0,1.675192360E1
6.451630090E-1,2.802000046E0,-1.580505085E1,3.463950157E0,1.642101663E1
6.471259670E-1,2.878050089E0,-1.546095085E1,3.502950191E0,1.611194692E1
6.490885690E-1,2.839950085E0,-1.507695103E1,3.426000118E0,1.571996328E1
6.510512750E-1,2.917050123E0,-1.461705112E1,3.310950041E0,1.526858720E1
6.530140540E-1,2.878050089E0,-1.419600105E1,3.310950041E0,1.485839858E1
6.549768110E-1,2.839950085E0,-1.373595047E1,3.196050167E0,1.438597888E1
6.569394130E-1,2.764050245E0,-1.327605057E1,3.004050255E0,1.388948560E1
6.589020540E-1,2.764050245E0,-1.289295101E1,2.773950100E0,1.347453000E1
6.608652050E-1,2.686950207E0,-1.247100067E1,2.353049994E0,1.297237077E1
6.628282060E-1,2.649000168E0,-1.204905033E1,1.855050087E0,1.247549705E1
6.647911170E-1,2.610000134E0,-1.147395039E1,1.585950017E0,1.187345256E1
6.667540540E-1,2.494950056E0,-1.093800068E1,1.356000066E0,1.130059161E1
6.687170900E-1,2.380050182E0,-1.047795010E1,9.349500537E-1,1.078546284E1
6.706801100E-1,2.304000139E0,-1.005600071E1,3.600000143E-1,1.032284684E1
6.726437380E-1,2.188950062E0,-9.673050880E0,-9.900000691E-2,9.918125665E0
6.746071870E-1,1.882050037E0,-9.175050735E0,-7.120500207E-1,9.393118948E0
6.765700660E-1,1.959000111E0,-8.599950790E0,-1.057050109E0,8.883365914E0
6.785331120E-1,1.959000111E0,-8.101950645E0,-1.210950017E0,8.422926192E0
6.804959490E-1,1.882050037E0,-7.564950466E0,-1.287000060E0,7.901073158E0
6.824588610E-1,1.920000076E0,-7.066950321E0,-1.249050021E0,7.428883704E0
6.844217850E-1,2.035050154E0,-6.529950142E0,-1.210950017E0,6.946083640E0
6.863847050E-1,2.074050188E0,-5.955000401E0,-1.096050024E0,6.400393707E0
6.883476290E-1,2.265000105E0,-5.533950329E0,-8.659500480E-1,6.041912049E0
6.903105510E-1,2.149950027E0,-5.074050426E0,-7.510500550E-1,5.561685809E0
6.922734900E-1,2.227050066E0,-4.651950359E0,-6.739500165E-1,5.201403923E0
6.942364130E-1,2.188950062E0,-4.269000053E0,-5.590500236E-1,4.829948318E0
6.961993810E-1,2.035050154E0,-3.808950186E0,-4.060500264E-1,4.337557754E0
6.981623360E-1,1.959000111E0,-3.387000084E0,-1.759500057E-1,3.916683470E0
7.001252550E-1,1.804950118E0,-3.004050255E0,-2.205000073E-2,3.504661048E0
7.020881840E-1,1.729050040E0,-2.620950222E0,1.680000126E-1,3.144394713E0
7.040503750E-1,1.804950118E0,-2.275950193E0,3.220500052E-1,2.922586255E0
7.060127890E-1,1.767000079E0,-1.930950046E0,5.899500251E-1,2.683076292E0
7.079759340E-1,1.729050040E0,-1.624050021E0,7.050000429E-1,2.474707573E0
7.099388640E-1,1.729050040E0,-1.356000066E0,7.810500264E-1,2.332035455E0
7.119020110E-1,1.614000082E0,-9.730500579E-1,9.730500579E-1,2.121001908E0
7.138650950E-1,1.537050128E0,-5.890500546E-1,1.087950110E0,1.973103775E0
7.158281960E-1,1.422000051E0,-2.830500007E-1,1.203000069E0,1.883987954E0
7.177912750E-1,1.422000051E0,-1.290000081E-1,1.279950023E0,1.917549792E0
7.197534500E-1,1.306950092E0,6.105000153E-2,1.395000100E0,1.912556124E0
7.217158900E-1,1.230000019E0,3.289500177E-1,1.318050027E0,1.832583977E0
7.236790300E-1,1.192050099E0,5.209500194E-1,1.279950023E0,1.825005321E0
7.256419650E-1,1.077000022E0,7.129500508E-1,1.165050030E0,1.739416107E0
7.276051070E-1,1.039050102E0,8.659500480E-1,1.011000037E0,1.688672756E0
7.295681910E-1,9.240000248E-1,9.810000658E-1,9.730500579E-1,1.662216469E0
7.315309070E-1,8.850000501E-1,1.057950020E0,7.429500222E-1,1.566671015E0
7.334937310E-1,8.089500666E-1,1.173000097E0,5.509500504E-1,1.527702653E0
7.354566250E-1,6.169500351E-1,1.288050056E0,2.070000172E-1,1.443104050E0
7.374194990E-1,4.639500082E-1,1.363950014E0,-9.900000691E-2,1.444094960E0
7.393824710E-1,3.109500110E-1,1.555950046E0,-5.209500194E-1,1.670047717E0
7.413454170E-1,1.570500135E-1,1.633050084E0,-1.057050109E0,1.951633218E0
7.433081570E-1,4.200000316E-2,1.747950077E0,-1.632000089E0,2.391760390E0
7.452709570E-1,-7.200000435E-2,1.863000035E0,-2.245050192E0,2.918253501E0
7.472338550E-1,-1.480500102E-1,2.016000032E0,-2.896950245E0,3.532491424E0
7.491967240E-1,-2.629500031E-1,2.208000183E0,-3.664050102E0,4.285985378E0
7.511590160E-1,-3.780000210E-1,2.437050104E0,-4.468050003E0,5.103485873E0
7.531214530E-1,-4.930500090E-1,2.629050016E0,-5.197050095E0,5.845026261E0
7.550844130E-1,-5.320500135E-1,2.896950245E0,-5.962950230E0,6.650727282E0
7.570472200E-1,-5.320500135E-1,3.088950157E0,-6.730050087E0,7.424167594E0
7.590101630E-1,-4.930500090E-1,3.241950035E0,-7.420050144E0,8.112366023E0
7.609730660E-1,-4.549500346E-1,3.357000113E0,-7.956000328E0,8.647217501E0
7.629358640E-1,-3.019500077E-1,3.511050224E0,-8.301000595E0,9.018051805E0
7.648986890E-1,-1.870500147E-1,3.549000263E0,-8.455050468E0,9.171601223E0
7.668614030E-1,-1.480500102E-1,3.549000263E0,-8.455050468E0,9.170888730E0
7.688241500E-1,4.200000316E-2,3.549000263E0,-8.185950279E0,8.922272628E0
7.707869670E-1,1.570500135E-1,3.511050224E0,-7.765050411E0,8.523388192E0
7.727497630E-1,3.109500110E-1,3.357000113E0,-7.189950466E0,7.941128847E0
7.747130140E-1,4.639500082E-1,3.204000235E0,-6.460950375E0,7.226669140E0
7.766761380E-1,5.790000558E-1,3.127050161E0,-5.617950439E0,6.455621652E0
7.786388480E-1,7.320000529E-1,2.974050045E0,-4.890000343E0,5.770000096E0
7.806016790E-1,8.470500112E-1,2.821050167E0,-4.009050369E0,4.974766590E0
7.825644820E-1,9.619500637E-1,2.629050016E0,-3.165000200E0,4.225455973E0
7.845272940E-1,1.114950061E0,2.476050138E0,-2.322000027E0,3.572901069E0
7.864902260E-1,1.153950095E0,2.284050226E0,-1.555950046E0,2.994906810E0
7.884531290E-1,1.192050099E0,2.131050110E0,-8.269500136E-1,2.578023339E0
7.904147950E-1,1.306950092E0,1.900950074E0,-1.759500057E-1,2.313587719E0
7.923768230E-1,1.306950092E0,1.747950077E0,4.750500321E-1,2.233633933E0
7.943397190E-1,1.306950092E0,1.594050050E0,1.087950110E0,2.330825937E0
7.963023600E-1,1.345050097E0,1.441050053E0,1.548000097E0,2.506409647E0
7.982651650E-1,1.345050097E0,1.326000094E0,1.930950046E0,2.701111640E0
8.002279120E-1,1.384050012E0,1.134000063E0,2.467950106E0,3.048332052E0
8.021906410E-1,1.384050012E0,1.057950020E0,2.928000212E0,3.407057076E0
8.041533760E-1,1.345050097E0,9.040500522E-1,3.196050167E0,3.583462422E0
8.061163300E-1,1.384050012E0,7.510500550E-1,3.463950157E0,3.805078358E0
8.080792200E-1,1.384050012E0,6.739500165E-1,3.694050074E0,4.001975638E0
8.100419700E-1,1.422000051E0,4.440000355E-1,3.771000147E0,4.054585340E0
8.120047610E-1,1.192050099E0,2.910000086E-1,3.847950220E0,4.038859411E0
8.139673910E-1,9.240000248E-1,1.380000114E-1,3.655950069E0,3.773432252E0
8.159300680E-1,6.940500140E-1,2.295000106E-2,3.541050196E0,3.608499496E0
8.178931670E-1,5.790000558E-1,-1.500000060E-2,3.463950157E0,3.512038832E0
8.198561430E-1,5.020500422E-1,-9.105000645E-2,3.426000118E0,3.463787112E0
8.218188890E-1,3.870000243E-1,-1.290000081E-1,3.388050079E0,3.412520089E0
8.237817270E-1,3.109500110E-1,-1.680000126E-1,3.388050079E0,3.406434684E0
8.257444840E-1,3.109500110E-1,-1.680000126E-1,3.310950041E0,3.329760365E0
8.277072650E-1,2.340000123E-1,-1.680000126E-1,3.196050167E0,3.209005559E0
8.296699870E-1,2.719500065E-1,-2.059500068E-1,3.081000090E0,3.099828022E0
8.316327270E-1,2.340000123E-1,-2.440500110E-1,2.928000212E0,2.947456811E0
8.335953860E-1,2.340000123E-1,-2.830500007E-1,2.812950134E0,2.836822477E0
8.355580540E-1,2.340000123E-1,-3.210000098E-1,2.736000061E0,2.764686844E0
8.375210200E-1,3.109500110E-1,-3.210000098E-1,2.583000183E0,2.621377665E0
8.394838980E-1,3.109500110E-1,-3.589500189E-1,2.506050110E0,2.550651324E0
8.414468290E-1,5.020500422E-1,-3.979500234E-1,2.353049994E0,2.438701035E0
8.434097450E-1,4.639500082E-1,-4.360500276E-1,2.275950193E0,2.363332080E0
8.453734770E-1,5.790000558E-1,-5.509500504E-1,2.161050081E0,2.304110344E0
8.473370040E-1,5.790000558E-1,-5.130000114E-1,2.008050203E0,2.151900485E0
8.492998700E-1,6.940500140E-1,-5.509500504E-1,1.893000126E0,2.090143741E0
8.512629290E-1,7.320000529E-1,-5.509500504E-1,1.816050053E0,2.034061904E0
8.532261880E-1,6.940500140E-1,-5.130000114E-1,1.777950048E0,1.976355436E0
8.551893890E-1,6.550500393E-1,-4.360500276E-1,1.701000094E0,1.874201564E0
8.571522200E-1,6.550500393E-1,-5.130000114E-1,1.585950017E0,1.790948637E0
8.591151600E-1,6.169500351E-1,-4.360500276E-1,1.510050058E0,1.688495825E0
8.610781240E-1,6.940500140E-1,-4.740000367E-1,1.510050058E0,1.728187674E0
8.630410810E-1,7.699500322E-1,-4.360500276E-1,1.510050058E0,1.750203947E0
8.650041340E-1,8.089500666E-1,-5.130000114E-1,1.471050024E0,1.755436526E0
8.669671580E-1,7.699500322E-1,-4.740000367E-1,1.471050024E0,1.726698370E0
8.689300690E-1,7.320000529E-1,-4.740000367E-1,1.510050058E0,1.743775012E0
8.708930100E-1,7.320000529E-1,-4.740000367E-1,1.471050024E0,1.710113530E0
8.728557950E-1,6.940500140E-1,-4.740000367E-1,1.510050058E0,1.728187674E0
8.748186260E-1,7.320000529E-1,-5.130000114E-1,1.510050058E0,1.754777555E0
8.767815640E-1,7.320000529E-1,-5.509500504E-1,1.548000097E0,1.798798026E0
8.787444700E-1,6.550500393E-1,-5.890500546E-1,1.548000097E0,1.781116173E0
8.807073870E-1,7.320000529E-1,-6.280500293E-1,1.585950017E0,1.856208063E0
8.826703070E-1,7.699500322E-1,-6.660000086E-1,1.740000129E0,2.015931425E0
8.846330070E-1,7.320000529E-1,-6.660000086E-1,1.893000126E0,2.136078080E0
8.865957710E-1,8.470500112E-1,-6.660000086E-1,1.930950046E0,2.211248021E0
8.885585400E-1,8.089500666E-1,-7.429500222E-1,2.046000004E0,2.322173758E0
8.905213070E-1,7.699500322E-1,-7.810500264E-1,2.046000004E0,2.321417285E0
8.924840810E-1,8.470500112E-1,-8.190000653E-1,2.122950077E0,2.427997500E0
8.944468500E-1,9.240000248E-1,-8.580000401E-1,2.122950077E0,2.469181473E0
8.964092600E-1,9.619500637E-1,-8.959500194E-1,2.046000004E0,2.431910849E0
8.983717750E-1,9.619500637E-1,-8.959500194E-1,2.008050203E0,2.400070828E0
9.003342270E-1,9.619500637E-1,-9.340500236E-1,2.085000038E0,2.478915596E0
9.022966980E-1,1.077000022E0,-9.730500579E-1,2.085000038E0,2.540468583E0
9.042593540E-1,1.000050068E0,-9.730500579E-1,2.085000038E0,2.508814802E0
9.062219750E-1,1.077000022E0,-9.730500579E-1,2.085000038E0,2.540468583E0
9.081849050E-1,1.114950061E0,-9.730500579E-1,2.046000004E0,2.525085359E0
9.101477450E-1,1.114950061E0,-9.730500579E-1,2.046000004E0,2.525085359E0
9.121103230E-1,1.114950061E0,-1.011000037E0,2.085000038E0,2.571470372E0
9.140729780E-1,1.192050099E0,-9.730500579E-1,2.085000038E0,2.591338460E0
9.160356500E-1,1.192050099E0,-9.340500236E-1,2.161050081E0,2.638857772E0
9.179983040E-1,1.077000022E0,-8.580000401E-1,2.122950077E0,2.530416990E0
9.199610920E-1,1.039050102E0,-8.580000401E-1,2.200050116E0,2.579924358E0
9.219238410E-1,1.039050102E0,-7.810500264E-1,2.275950193E0,2.620994762E0
9.238866140E-1,1.153950095E0,-7.039500475E-1,2.545050144E0,2.881740226E0
9.258493790E-1,1.269000053E0,-7.039500475E-1,2.659050226E0,3.029266398E0
9.278121050E-1,1.306950092E0,-6.280500293E-1,2.773950100E0,3.130074207E0
9.297748430E-1,1.345050097E0,-5.130000114E-1,2.851050138E0,3.193871579E0
9.317374820E-1,1.384050012E0,-4.740000367E-1,2.889000177E0,3.238300865E0
9.337001500E-1,1.422000051E0,-3.589500189E-1,2.928000212E0,3.274769381E0
9.356627560E-1,1.498950124E0,-2.440500110E-1,3.004050255E0,3.366114944E0
9.376253810E-1,1.498950124E0,-1.680000126E-1,2.928000212E0,3.293669795E0
9.395877800E-1,1.459950089E0,-1.290000081E-1,2.928000212E0,3.274336651E0
9.415502700E-1,1.498950124E0,-9.105000645E-2,2.889000177E0,3.255988882E0
9.435126810E-1,1.498950124E0,2.295000106E-2,2.928000212E0,3.289462481E0
9.454751160E-1,1.498950124E0,1.380000114E-1,2.928000212E0,3.292275917E0
9.474381670E-1,1.537050128E0,2.140500098E-1,2.812950134E0,3.212635828E0
9.494010380E-1,1.537050128E0,2.910000086E-1,2.698050022E0,3.118762258E0
9.513638060E-1,1.537050128E0,2.910000086E-1,2.620950222E0,3.052308007E0
9.533265930E-1,1.498950124E0,3.289500177E-1,2.506050110E0,2.938596049E0
9.552893140E-1,1.537050128E0,3.679500222E-1,2.391000032E0,2.866145752E0
9.572520550E-1,1.537050128E0,3.289500177E-1,2.353049994E0,2.829765977E0
9.592146480E-1,1.614000082E0,3.289500177E-1,2.200050116E0,2.748349485E0
9.611772850E-1,1.651950121E0,3.289500177E-1,2.122950077E0,2.709993422E0
9.631402710E-1,1.690050125E0,3.679500222E-1,2.046000004E0,2.679136551E0
9.651031440E-1,1.767000079E0,2.910000086E-1,1.893000126E0,2.605843388E0
9.670660760E-1,1.729050040E0,2.530499995E-1,1.624950051E0,2.386233646E0
9.690289910E-1,1.767000079E0,2.910000086E-1,1.510050058E0,2.342481902E0
9.709920960E-1,1.804950118E0,2.140500098E-1,1.279950023E0,2.223046197E0
9.729551450E-1,1.804950118E0,2.140500098E-1,8.959500194E-1,2.026422654E0
9.749186120E-1,1.882050037E0,1.759500057E-1,5.130000114E-1,1.958632114E0
9.768819710E-1,1.804950118E0,1.380000114E-1,1.500000060E-2,1.810280070E0
9.788447750E-1,1.882050037E0,9.900000691E-2,-6.360000372E-1,1.989072495E0
9.808077420E-1,2.035050154E0,2.295000106E-2,-1.824000120E0,2.732934736E0
9.827712420E-1,2.304000139E0,-1.290000081E-1,-3.127050161E0,3.886322215E0
9.847345860E-1,2.649000168E0,-2.059500068E-1,-5.119950294E0,5.768319366E0
9.866977400E-1,3.453000069E0,-4.360500276E-1,-9.183000565E0,9.820430157E0
9.886609590E-1,4.795050144E0,-1.164000034E0,-1.523895073E1,1.601789691E1
9.906238760E-1,6.136050224E0,-2.008050203E0,-2.048895073E1,2.148209673E1
9.925868820E-1,7.132950306E0,-2.889000177E0,-2.420700073E1,2.540086980E1
9.945501500E-1,7.095000267E0,-3.616950274E0,-2.447505188E1,2.573809477E1
9.965133410E-1,6.826050282E0,-4.306950092E0,-2.482005119E1,2.609941997E1
9.984762330E-1,6.442950249E0,-5.112000465E0,-2.581695175E1,2.709537146E1
1.000439203E0,5.676000118E0,-5.839950085E0,-2.554905128E1,2.681559278E1
1.002402297E0,4.756950378E0,-6.300000191E0,-2.229105186E1,2.364761241E1
1.004365355E0,3.913050175E0,-6.645000458E0,-1.726995087E1,1.891346599E1
1.006327896E0,3.147000074E0,-6.837000370E0,-1.163595009E1,1.385797669E1
1.008290588E0,2.457000017E0,-6.990000248E0,-6.193050385E0,9.656646707E0
1.010252646E0,1.651950121E0,-7.066950321E0,-1.363950014E0,7.384516618E0
1.012214892E0,1.230000019E0,-7.105050564E0,3.043050051E0,7.826544395E0
1.014177750E0,1.077000022E0,-7.105050564E0,6.070950508E0,9.407343548E0
1.016140428E0,1.039050102E0,-6.990000248E0,7.642050266E0,1.040868199E1
1.018102989E0,9.619500637E-1,-7.297050476E0,8.370000839E0,1.114581570E1
1.020065584E0,6.169500351E-1,-8.715000153E0,8.830050468E0,1.242182138E1
1.022027721E0,-1.099500060E-1,-1.044000053E1,9.022050858E0,1.379866305E1
1.023989983E0,-5.320500135E-1,-1.216395092E1,8.983950615E0,1.513129697E1
1.025952838E0,-2.218050003E0,-1.492395115E1,9.175050735E0,1.765858487E1
1.027915519E0,-3.865950108E0,-1.818195152E1,9.634950638E0,2.093707728E1
1.029878259E0,-5.437950134E0,-2.090295029E1,9.634950638E0,2.365030457E1
1.031840981E0,-6.778950214E0,-2.350905037E1,8.983950615E0,2.606417050E1
1.033803613E0,-7.431000233E0,-2.657595062E1,7.909950256E0,2.870658860E1
1.035766248E0,-7.776000500E0,-2.979495049E1,7.105050564E0,3.160200946E1
1.037729219E0,-8.274000168E0,-3.278505325E1,7.297050476E0,3.459141138E1
1.039692092E0,-8.503950119E0,-3.646395111E1,8.370000839E0,3.836657155E1
1.041654709E0,-8.427000046E0,-4.006695175E1,8.869050026E0,4.189313787E1
1.043617401E0,-8.350950241E0,-4.340100098E1,9.098999977E0,4.512401862E1
1.045580142E0,-8.274000168E0,-4.650600052E1,9.136950493E0,4.811185953E1
1.047542865E0,-7.813950539E0,-4.934205246E1,8.944950104E0,5.075143443E1
1.049505508E0,-6.625950336E0,-5.171805191E1,8.638950348E0,5.285159954E1
1.051468175E0,-5.016000271E0,-5.344305420E1,8.140049934E0,5.429162655E1
1.053431096E0,-3.175950050E0,-5.486100388E1,7.834050179E0,5.550845654E1
1.055393942E0,-8.770500422E-1,-5.601105118E1,7.756950378E0,5.655243010E1
1.057357645E0,1.651950121E0,-5.719905090E1,7.297050476E0,5.768628354E1
1.059321096E0,3.682950258E0,-5.811900330E1,5.878950119E0,5.853157030E1
1.061283884E0,6.558000088E0,-5.949900436E1,3.886050224E0,5.998533381E1
1.063246867E0,9.624000549E0,-6.080205154E1,2.200050116E0,6.159830419E1
1.065210680E0,1.330395031E1,-6.187500381E1,3.979500234E-1,6.329035910E1
1.067174250E0,1.702095032E1,-6.287205124E1,-2.437050104E0,6.518087749E1
1.069136933E0,2.142900085E1,-6.356205368E1,-6.576000214E0,6.739866857E1
1.071099872E0,2.622000122E1,-6.348495483E1,-1.397400093E1,7.009351365E1
1.073062567E0,3.066600227E1,-6.210495377E1,-2.420700073E1,7.337171023E1
1.075025334E0,3.296595001E1,-5.896200180E1,-3.095295143E1,7.430583233E1
1.076988328E0,3.093405151E1,-5.398005295E1,-3.076095200E1,6.940459514E1
1.078951255E0,2.671800041E1,-4.826895142E1,-2.712000084E1,6.147550457E1
1.080914123E0,2.150595093E1,-4.301805115E1,-2.160105133E1,5.272251956E1
1.082877016E0,1.567995071E1,-3.883995056E1,-1.512405109E1,4.453245486E1
1.084839584E0,1.073595047E1,-3.562095261E1,-8.875950813E0,3.824781562E1
1.086802247E0,6.520050526E0,-3.282300186E1,-3.127050161E0,3.361010195E1
1.088763277E0,2.649000168E0,-3.013995171E1,2.200050116E0,3.033602003E1
1.090724785E0,-4.170000255E-1,-2.814705086E1,5.686950207E0,2.871883987E1
1.092688109E0,-2.793000221E0,-2.672895050E1,7.680000305E0,2.795031395E1
1.094650884E0,-4.249050140E0,-2.546400070E1,8.944950104E0,2.732182079E1
1.096613654E0,-5.053950310E0,-2.442900085E1,9.405000687E0,2.666031760E1
1.098576425E0,-5.284050465E0,-2.358600044E1,9.712050438E0,2.604888731E1
1.100539553E0,-5.476050377E0,-2.281905174E1,9.634950638E0,2.536786400E1
1.102502576E0,-5.437950134E0,-2.212995148E1,9.634950638E0,2.474142938E1
1.104465515E0,-5.245950222E0,-2.170800018E1,9.481950760E0,2.426241241E1
1.106428488E0,-5.245950222E0,-2.121000099E1,8.983950615E0,2.362404505E1
1.108391222E0,-5.016000271E0,-2.094105148E1,8.524050713E0,2.315917392E1
1.110354026E0,-4.708950043E0,-2.078805161E1,8.101950645E0,2.280260740E1
1.112317104E0,-4.363950253E0,-2.078805161E1,7.527000427E0,2.253536968E1
1.114280101E0,-4.018949986E0,-2.109495163E1,6.721950531E0,2.250185686E1
1.116243002E0,-3.559950113E0,-2.143995094E1,6.070950508E0,2.256548651E1
1.118205939E0,-3.214950085E0,-2.174595070E1,5.496000290E0,2.265895618E1
1.120168724E0,-2.793000221E0,-2.197605133E1,4.959000111E0,2.270108730E1
1.122131554E0,-2.371050119E0,-2.212995148E1,4.576050282E0,2.272216687E1
1.124094268E0,-1.950000048E0,-2.220600128E1,4.345950127E0,2.271114871E1
1.126057016E0,-1.567050099E0,-2.216805077E1,4.116000175E0,2.260131806E1
1.128019628E0,-1.260000110E0,-2.197605133E1,3.847950220E0,2.234594266E1
1.129982266E0,-9.919500351E-1,-2.163105011E1,3.655950069E0,2.196024282E1
1.131944921E0,-8.770500422E-1,-2.128605080E1,3.579000235E0,2.160264840E1
1.133907571E0,-6.079500318E-1,-2.101800156E1,3.388050079E0,2.129800169E1
1.135870316E0,-4.170000255E-1,-2.074995041E1,3.349050045E0,2.102261799E1
1.137833033E0,-7.200000435E-2,-2.063505173E1,3.310950041E0,2.089911323E1
1.139795502E0,8.100000024E-2,-2.036595154E1,3.388050079E0,2.064600267E1
1.141758040E0,2.340000123E-1,-2.005995178E1,3.463950157E0,2.035817704E1
1.143720803E0,3.490500152E-1,-1.971495056E1,3.541050196E0,2.003347569E1
1.145683500E0,4.639500082E-1,-1.933200073E1,3.733050108E0,1.969459736E1
1.147647048E0,7.320000529E-1,-1.894799995E1,3.886050224E0,1.935623705E1
1.149610346E0,8.850000501E-1,-1.860300064E1,4.153950214E0,1.908167079E1
1.151572646E0,1.000050068E0,-1.814295006E1,4.153950214E0,1.863926070E1
1.153535252E0,1.306950092E0,-1.779900169E1,4.192950249E0,1.833285061E1
1.155498003E0,1.422000051E0,-1.737705040E1,4.269000053E0,1.795016229E1
1.157460711E0,1.651950121E0,-1.691700172E1,4.345950127E0,1.754426314E1
1.159423672E0,1.920000076E0,-1.653404999E1,4.308000088E0,1.719360562E1
1.161386558E0,2.111999989E0,-1.607400131E1,4.308000088E0,1.677477055E1
1.163348988E0,2.265000105E0,-1.561395073E1,4.078050137E0,1.629589445E1
1.165311555E0,2.380050182E0,-1.519200039E1,3.963000298E0,1.587976341E1
1.167274358E0,2.457000017E0,-1.473195076E1,3.771000147E0,1.540414439E1
1.169237091E0,2.494950056E0,-1.431105042E1,3.579000235E0,1.496128946E1
1.171200002E0,2.494950056E0,-1.373595047E1,3.310950041E0,1.434794415E1
1.173162860E0,2.533950090E0,-1.327605057E1,3.043050051E0,1.385404545E1
1.175125629E0,2.686950207E0,-1.281600094E1,2.773950100E0,1.338522994E1
1.177088415E0,2.686950207E0,-1.235595036E1,2.506050110E0,1.289067484E1
1.179051225E0,2.686950207E0,-1.193400097E1,2.238000154E0,1.243578406E1
1.181014028E0,2.764050245E0,-1.139805031E1,1.969950080E0,1.189269641E1
1.182976612E0,2.802000046E0,-1.082295036E1,1.777950048E0,1.132027231E1
1.184939261E0,2.955000162E0,-1.028595066E1,1.663050056E0,1.083044516E1
1.186902171E0,2.955000162E0,-9.711000443E0,1.548000097E0,1.026800175E1
1.188865014E0,3.031950235E0,-9.060000420E0,1.471050024E0,9.666453228E0
1.190827951E0,3.184950113E0,-8.370000839E0,1.356000066E0,9.057569070E0
1.192790860E0,3.415050268E0,-7.717950344E0,1.126049995E0,8.514535480E0
1.194753471E0,3.568050146E0,-7.105050564E0,8.580000401E-1,7.996804951E0
1.196716170E0,3.682950258E0,-6.492000103E0,6.660000086E-1,7.493580183E0
1.198678905E0,3.721950293E0,-5.955000401E0,4.750500321E-1,7.038509521E0
1.200641630E0,3.760050297E0,-5.380050182E0,2.830500007E-1,6.569858104E0
1.202605128E0,3.682950258E0,-4.882050037E0,2.070000172E-1,6.118936524E0
1.204568399E0,3.607050180E0,-4.345950127E0,2.070000172E-1,5.651631845E0
1.206531128E0,3.529950142E0,-3.886050224E0,1.680000126E-1,5.252633469E0
1.208494016E0,3.337950230E0,-3.426000118E0,1.680000126E-1,4.786189774E0
1.210456920E0,3.262050152E0,-2.965950251E0,9.195000678E-2,4.409794427E0
1.212419836E0,3.147000074E0,-2.544000149E0,9.195000678E-2,4.047715532E0
1.214382536E0,3.031950235E0,-2.238000154E0,5.295000225E-2,3.768842080E0
1.216345300E0,2.917050123E0,-1.854000092E0,1.300500035E-1,3.458816382E0
1.218307890E0,2.764050245E0,-1.471050024E0,1.500000060E-2,3.131163830E0
1.220270531E0,2.610000134E0,-1.126049995E0,1.500000060E-2,2.842589363E0
1.222233525E0,2.494950056E0,-7.810500264E-1,-6.105000153E-2,2.615060617E0
1.224196399E0,2.304000139E0,-5.130000114E-1,-1.759500057E-1,2.366969383E0
1.226159016E0,2.074050188E0,-1.680000126E-1,-3.289500177E-1,2.106683721E0
1.228121709E0,1.920000076E0,-5.295000225E-2,-5.590500236E-1,2.000435184E0
1.230084086E0,1.767000079E0,2.140500098E-1,-7.120500207E-1,1.917060750E0
1.232046555E0,1.690050125E0,4.830000103E-1,-9.040500522E-1,1.976579098E0
1.234009379E0,1.575000048E0,7.129500508E-1,-1.363950014E0,2.202108664E0
1.235972096E0,1.422000051E0,9.430500269E-1,-1.939050078E0,2.582894249E0
1.237934875E0,1.269000053E0,1.173000097E0,-2.551950216E0,3.082002640E0
1.239897635E0,1.153950095E0,1.363950014E0,-3.088950157E0,3.568413308E0
1.241860406E0,1.000050068E0,1.555950046E0,-3.817050219E0,4.241574360E0
1.243823173E0,8.089500666E-1,1.824000120E0,-4.621950150E0,5.034262591E0
1.245785242E0,6.169500351E-1,2.092950106E0,-5.311950207E0,5.742637242E0
1.247747502E0,4.639500082E-1,2.284050226E0,-6.270000458E0,6.689173401E0
1.249710357E0,3.109500110E-1,2.476050138E0,-7.113000393E0,7.538056035E0
1.251673038E0,1.189500093E-1,2.667000055E0,-7.879950523E0,8.319895351E0
1.253636048E0,8.100000024E-2,2.859000206E0,-8.646000862E0,9.106798235E0
1.255598961E0,4.200000316E-2,3.012000084E0,-9.220950127E0,9.700506675E0
1.257561652E0,4.200000316E-2,3.088950157E0,-9.757950783E0,1.023528117E1
1.259524415E0,1.189500093E-1,3.204000235E0,-1.014105034E1,1.063582007E1
1.261487050E0,1.960500032E-1,3.204000235E0,-1.033305073E1,1.082016592E1
1.263449723E0,3.109500110E-1,3.319050074E0,-1.017900085E1,1.071096829E1
1.265413409E0,4.260000288E-1,3.280950069E0,-9.910950661E0,1.044859093E1
1.267376798E0,6.169500351E-1,3.319050074E0,-9.451050758E0,1.003588966E1
1.269339597E0,7.320000529E-1,3.357000113E0,-8.838000298E0,9.482379611E0
1.271302569E0,9.619500637E-1,3.357000113E0,-7.995000362E0,8.724381266E0
1.273265123E0,1.192050099E0,3.319050074E0,-7.075050354E0,7.905277626E0
1.275227800E0,1.345050097E0,3.241950035E0,-6.117000103E0,7.052452769E0
1.277190404E0,1.537050128E0,3.166050196E0,-5.197050095E0,6.276601519E0
1.279153030E0,1.843950033E0,2.974050045E0,-4.353000164E0,5.585135256E0
1.281115644E0,2.149950027E0,2.782050133E0,-3.433950186E0,4.914682283E0
1.283078261E0,2.457000017E0,2.590950012E0,-2.629050016E0,4.434160015E0
1.285041056E0,2.764050245E0,2.284050226E0,-1.861950040E0,4.040262014E0
1.287003798E0,3.070050240E0,1.978050113E0,-1.171950102E0,3.835538784E0
1.288966932E0,3.337950230E0,1.633050084E0,-5.209500194E-1,3.752353026E0
1.290929951E0,3.568050146E0,1.288050056E0,1.500000060E-2,3.793452226E0
1.292891602E0,3.837000132E0,9.810000658E-1,4.750500321E-1,3.988809806E0
1.294853651E0,4.027950287E0,5.980500579E-1,9.730500579E-1,4.186749790E0
1.296816542E0,4.143000126E0,2.140500098E-1,1.395000100E0,4.376790231E0
1.298779187E0,4.219950199E0,-1.500000060E-2,1.585950017E0,4.508152852E0
1.300742744E0,4.297049999E0,-2.059500068E-1,1.816050053E0,4.669592262E0
1.302706033E0,4.297049999E0,-4.360500276E-1,2.046000004E0,4.779214824E0
1.304668693E0,4.258049965E0,-7.039500475E-1,2.275950193E0,4.879188914E0
1.306631521E0,4.143000126E0,-8.959500194E-1,2.391000032E0,4.866626926E0
1.308593784E0,4.027950287E0,-1.048950076E0,2.506050110E0,4.858494307E0
1.310556213E0,3.837000132E0,-1.126049995E0,2.583000183E0,4.760509274E0
1.312519040E0,3.645000219E0,-1.203000069E0,2.583000183E0,4.626567379E0
1.314481750E0,3.376950264E0,-1.126049995E0,2.506050110E0,4.353397389E0
1.316444326E0,3.108000040E0,-9.730500579E-1,2.430000067E0,4.063421094E0
1.318406959E0,2.839950085E0,-8.959500194E-1,2.391000032E0,3.819021351E0
1.320369750E0,2.572050095E0,-7.810500264E-1,2.353049994E0,3.572439657E0
1.322332495E0,2.304000139E0,-6.280500293E-1,2.430000067E0,3.407016848E0
1.324295225E0,1.996950150E0,-4.740000367E-1,2.430000067E0,3.180783906E0
1.326257959E0,1.767000079E0,-4.360500276E-1,2.506050110E0,3.097211013E0
1.328220608E0,1.459950089E0,-3.979500234E-1,2.583000183E0,2.993611269E0
1.330183275E0,1.345050097E0,-3.210000098E-1,2.583000183E0,2.929861893E0
1.332145882E0,1.230000019E0,-2.440500110E-1,2.620950222E0,2.905484559E0
1.334108506E0,1.039050102E0,-2.440500110E-1,2.736000061E0,2.936814917E0
1.336071120E0,1.000050068E0,-2.830500007E-1,2.736000061E0,2.926758237E0
1.338033737E0,8.089500666E-1,-2.830500007E-1,2.659050226E0,2.793754753E0
1.339996491E0,6.940500140E-1,-3.210000098E-1,2.659050226E0,2.766820293E0
1.341959201E0,6.940500140E-1,-2.830500007E-1,2.659050226E0,2.762674579E0
1.343920900E0,6.169500351E-1,-2.830500007E-1,2.620950222E0,2.707420306E0
1.345882896E0,5.020500422E-1,-3.210000098E-1,2.583000183E0,2.650846129E0
1.347845661E0,4.260000288E-1,-2.830500007E-1,2.659050226E0,2.707792723E0
1.349808201E0,3.870000243E-1,-3.210000098E-1,2.620950222E0,2.668743167E0
1.351770975E0,3.870000243E-1,-2.830500007E-1,2.545050144E0,2.589819793E0
1.353733673E0,3.490500152E-1,-3.589500189E-1,2.659050226E0,2.705776993E0
1.355696499E0,4.639500082E-1,-4.360500276E-1,2.659050226E0,2.734216038E0
1.357659288E0,5.020500422E-1,-4.740000367E-1,2.736000061E0,2.821777208E0
1.359622955E0,6.169500351E-1,-4.740000367E-1,2.659050226E0,2.770532708E0
1.361586365E0,6.550500393E-1,-5.130000114E-1,2.659050226E0,2.786181557E0
1.363548785E0,8.089500666E-1,-5.890500546E-1,2.698050022E0,2.877647320E0
1.365511506E0,8.850000501E-1,-5.890500546E-1,2.659050226E0,2.863695717E0
1.367474283E0,8.850000501E-1,-6.660000086E-1,2.659050226E0,2.880508498E0
1.369437043E0,8.850000501E-1,-7.039500475E-1,2.698050022E0,2.925447774E0
1.371399814E0,9.619500637E-1,-7.429500222E-1,2.659050226E0,2.923674189E0
1.373362581E0,8.850000501E-1,-7.039500475E-1,2.736000061E0,2.960484266E0
1.375325232E0,9.619500637E-1,-6.660000086E-1,2.698050022E0,2.940812449E0
1.377287906E0,9.619500637E-1,-6.660000086E-1,2.698050022E0,2.940812449E0
1.379250466E0,9.240000248E-1,-5.890500546E-1,2.698050022E0,2.912083435E0
1.381213060E0,9.619500637E-1,-5.890500546E-1,2.620950222E0,2.853367827E0
1.383175858E0,9.619500637E-1,-4.360500276E-1,2.430000067E0,2.649601456E0
1.385138596E0,9.240000248E-1,-3.979500234E-1,2.275950193E0,2.488390956E0
1.387101385E0,8.850000501E-1,-3.210000098E-1,2.200050116E0,2.393007857E0
1.389064149E0,9.240000248E-1,-1.680000126E-1,2.046000004E0,2.251247669E0
1.391026740E0,8.089500666E-1,-1.290000081E-1,1.855050087E0,2.027868841E0
1.392989381E0,7.320000529E-1,-1.290000081E-1,1.777950048E0,1.927062909E0
1.394952171E0,6.940500140E-1,-9.105000645E-2,1.701000094E0,1.839401220E0
1.396914918E0,6.550500393E-1,-5.295000225E-2,1.624950051E0,1.752814002E0
1.398876846E0,6.169500351E-1,-1.500000060E-2,1.585950017E0,1.701790176E0
1.400839007E0,6.550500393E-1,9.900000691E-2,1.510050058E0,1.648982333E0
1.402801699E0,5.790000558E-1,9.900000691E-2,1.471050024E0,1.583991868E0
1.404764236E0,5.790000558E-1,9.900000691E-2,1.432950020E0,1.548672924E0
1.406726280E0,4.260000288E-1,9.900000691E-2,1.356000066E0,1.424785319E0
1.408688468E0,2.719500065E-1,1.759500057E-1,1.279950023E0,1.320298175E0
1.410651527E0,2.719500065E-1,2.530499995E-1,1.203000069E0,1.259047367E0
1.412614355E0,2.340000123E-1,2.530499995E-1,1.087950110E0,1.141238691E0
1.414577295E0,2.340000123E-1,3.289500177E-1,9.730500579E-1,1.053465963E0
1.416540202E0,2.340000123E-1,3.289500177E-1,8.580000401E-1,9.482237018E-1
1.418503128E0,2.340000123E-1,3.289500177E-1,7.429500222E-1,8.455405699E-1
1.420466048E0,2.340000123E-1,3.679500222E-1,5.899500251E-1,7.336104257E-1
1.422429684E0,2.719500065E-1,3.679500222E-1,4.360500276E-1,6.320471908E-1
1.424393116E0,2.719500065E-1,3.289500177E-1,2.449500114E-1,4.921030667E-1
1.426355772E0,3.109500110E-1,3.679500222E-1,1.300500035E-1,4.989891097E-1
1.428318656E0,3.109500110E-1,4.060500264E-1,-6.105000153E-2,5.150666326E-1
1.430281540E0,3.109500110E-1,4.440000355E-1,-3.289500177E-1,6.340615546E-1
1.432244424E0,2.340000123E-1,5.209500194E-1,-5.209500194E-1,7.730031378E-1
1.434207204E0,1.570500135E-1,5.209500194E-1,-6.360000372E-1,8.369884568E-1
1.436170026E0,1.570500135E-1,5.980500579E-1,-6.739500165E-1,9.146240775E-1
1.438132786E0,4.200000316E-2,5.980500579E-1,-6.360000372E-1,8.740274134E-1
1.440095564E0,-7.200000435E-2,7.129500508E-1,-5.590500236E-1,9.088557116E-1
1.442058332E0,-1.480500102E-1,7.129500508E-1,-4.440000355E-1,8.528497007E-1
1.444021103E0,-2.629500031E-1,7.129500508E-1,-3.670500219E-1,8.438994002E-1
1.445983706E0,-3.019500077E-1,7.510500550E-1,-2.140500098E-1,8.372976765E-1
1.447946348E0,-3.400500119E-1,8.280000687E-1,-9.900000691E-2,9.005660029E-1
1.449908959E0,-4.170000255E-1,7.510500550E-1,5.295000225E-2,8.606793300E-1
1.451871579E0,-4.170000255E-1,7.510500550E-1,1.300500035E-1,8.688372747E-1
1.453833608E0,-4.549500346E-1,7.890000343E-1,2.449500114E-1,9.431336577E-1
1.455795810E0,-4.930500090E-1,7.890000343E-1,3.600000143E-1,9.976068243E-1
1.457758901E0,-4.930500090E-1,7.890000343E-1,3.979500234E-1,1.011920741E0
1.459721731E0,-4.930500090E-1,8.280000687E-1,4.750500321E-1,1.074409120E0
1.461684446E0,-5.700000525E-1,7.890000343E-1,5.509500504E-1,1.118466393E0
1.463647195E0,-4.930500090E-1,6.739500165E-1,5.509500504E-1,1.000426356E0
1.465609832E0,-3.780000210E-1,6.360000372E-1,5.509500504E-1,9.224565145E-1
1.467572502E0,-3.780000210E-1,5.980500579E-1,5.509500504E-1,8.967127999E-1
1.469535246E0,-3.400500119E-1,5.590500236E-1,5.899500251E-1,8.810289277E-1
1.471497966E0,-3.780000210E-1,4.830000103E-1,5.899500251E-1,8.510076720E-1
1.473460789E0,-2.629500031E-1,3.679500222E-1,5.899500251E-1,7.433511654E-1
1.475423581E0,-2.629500031E-1,3.289500177E-1,6.280500293E-1,7.561730341E-1
1.477386348E0,-3.400500119E-1,2.910000086E-1,6.280500293E-1,7.712080490E-1
1.479349122E0,-3.780000210E-1,2.530499995E-1,5.899500251E-1,7.449559384E-1
1.481311821E0,-4.170000255E-1,2.140500098E-1,5.509500504E-1,7.233618638E-1
1.483274559E0,-4.549500346E-1,1.759500057E-1,4.750500321E-1,6.808894709E-1
1.485237693E0,-5.700000525E-1,1.380000114E-1,3.220500052E-1,6.690741878E-1
1.487200711E0,-6.850500107E-1,2.140500098E-1,5.295000225E-2,7.196628562E-1
1.489163123E0,-7.999500632E-1,1.759500057E-1,-2.140500098E-1,8.465789478E-1
1.491125713E0,-9.150000215E-1,9.900000691E-2,-5.970000029E-1,1.097011871E0
1.493089238E0,-9.919500351E-1,-1.500000060E-2,-1.057050109E0,1.449670585E0
1.495052485E0,-1.068000078E0,-9.105000645E-2,-1.594050050E0,1.920913801E0
1.497014948E0,-1.068000078E0,-2.440500110E-1,-2.092050076E0,2.361537231E0
1.498977641E0,-9.529500604E-1,-5.890500546E-1,-2.475000143E0,2.716747963E0
1.500940468E0,-7.230000496E-1,-1.011000037E0,-2.935050249E0,3.187376682E0
1.502903255E0,-3.400500119E-1,-1.393950105E0,-3.319050074E0,3.615912651E0
1.504866016E0,4.200000316E-2,-1.701000094E0,-3.739950180E0,4.108818890E0
1.506828757E0,3.870000243E-1,-2.161050081E0,-4.507050037E0,5.013322901E0
1.508792071E0,8.089500666E-1,-2.544000149E0,-5.350050449E0,5.979078255E0
1.510755217E0,1.230000019E0,-3.004050255E0,-6.423000336E0,7.196676406E0
1.512717787E0,1.422000051E0,-3.616950274E0,-7.879950523E0,8.786241157E0
1.514680526E0,1.651950121E0,-4.192049980E0,-9.106050491E0,1.015984143E1
1.516643280E0,1.614000082E0,-4.690050125E0,-9.643050194E0,1.084389153E1
1.518606043E0,1.575000048E0,-4.996950150E0,-9.373950005E0,1.073876504E1
1.520568948E0,1.459950089E0,-5.188950062E0,-8.224950790E0,9.833944911E0
1.522531812E0,1.422000051E0,-5.188950062E0,-6.538050175E0,8.467194752E0
1.524494566E0,1.306950092E0,-5.304000378E0,-4.621950150E0,7.155624483E0
1.526457353E0,1.192050099E0,-5.725050449E0,-2.437050104E0,6.335329455E0
1.528418186E0,8.089500666E-1,-6.721950531E0,-5.970000029E-1,6.796721868E0
1.530379588E0,-2.629500031E-1,-8.254950523E0,6.280500293E-1,8.282982415E0
1.532342366E0,-1.375050068E0,-1.032495022E1,1.548000097E0,1.053051110E1
1.534304740E0,-2.563050032E0,-1.239405060E1,2.046000004E0,1.282060185E1
1.536267397E0,-3.828000069E0,-1.484700108E1,2.430000067E0,1.552391464E1
1.538229971E0,-5.169000149E0,-1.776000023E1,3.004050255E0,1.873927663E1
1.540192654E0,-6.433950424E0,-2.109495163E1,3.502950191E0,2.233077165E1
1.542155294E0,-7.276950359E0,-2.450595093E1,3.847950220E0,2.585154460E1
1.544118040E0,-7.891050339E0,-2.833905220E1,4.882050037E0,2.981954003E1
1.546080755E0,-8.274000168E0,-3.224805069E1,6.568950176E0,3.393445091E1
1.548043400E0,-8.464950562E0,-3.623400116E1,7.603950500E0,3.797865573E1
1.550006065E0,-8.274000168E0,-4.006695175E1,8.524050713E0,4.179089784E1
1.551968824E0,-8.005949974E0,-4.374600220E1,9.826950073E0,4.554532787E1
1.553931543E0,-7.468950272E0,-4.754100037E1,1.090005016E1,4.934311530E1
1.555894186E0,-6.856050491E0,-5.118195343E1,1.162800026E1,5.293210911E1
1.557856852E0,-6.013050079E0,-5.455500412E1,1.216500092E1,5.621736825E1
1.559819773E0,-4.824000359E0,-5.750595093E1,1.281600094E1,5.911391758E1
1.561782620E0,-2.946000099E0,-5.972895432E1,1.316100025E1,6.123266145E1
1.563746457E0,4.200000316E-2,-6.091695404E1,1.316100025E1,6.232245969E1
1.565710004E0,3.223050117E0,-6.164505386E1,1.251000023E1,6.298413152E1
1.567672686E0,6.673050404E0,-6.264195251E1,1.135995007E1,6.401243849E1
1.569635622E0,9.700950623E0,-6.356205368E1,9.673050880E0,6.502161967E1
1.571598182E0,1.291995049E1,-6.440505219E1,7.297050476E0,6.609222960E1
1.573560852E0,1.633095169E1,-6.520995331E1,4.000950336E0,6.734274718E1
1.575524355E0,2.058600044E1,-6.620595551E1,-8.659500480E-1,6.933802585E1
1.577487616E0,2.614305115E1,-6.747105408E1,-9.910950661E0,7.303443848E1
1.579450617E0,3.269700241E1,-6.819900513E1,-2.225205040E1,7.883750385E1
1.581413694E0,3.630000305E1,-6.697305298E1,-2.689005089E1,8.078462034E1
1.583376456E0,3.706695175E1,-6.417494965E1,-2.692800140E1,7.885112766E1
1.585339310E0,3.576405334E1,-5.980605316E1,-2.551005173E1,7.420642995E1
1.587302229E0,3.078105164E1,-5.382600403E1,-2.091105080E1,6.543686954E1
1.589265139E0,2.426505089E1,-4.800105286E1,-1.497000027E1,5.583005175E1
1.591227885E0,1.778805161E1,-4.278795242E1,-8.799000740E0,4.716615382E1
1.593190680E0,1.203900051E1,-3.853395081E1,-3.778950214E0,4.054729785E1
1.595152723E0,7.363050461E0,-3.504600143E1,-6.360000372E-1,3.581677295E1
1.597114987E0,3.529950142E0,-3.220995331E1,1.050000072E0,3.241981092E1
1.599076952E0,5.790000558E-1,-2.983305168E1,1.510050058E0,2.987685500E1
1.601038997E0,-1.758000135E0,-2.784000206E1,1.165050030E0,2.791977114E1
1.603002746E0,-3.061050177E0,-2.634600067E1,1.500000060E-2,2.652323518E1
1.604965995E0,-4.057950020E0,-2.519595146E1,-7.890000343E-1,2.553283082E1
1.606928908E0,-4.978050232E0,-2.439105034E1,-1.096050024E0,2.491797838E1
1.608891920E0,-5.898000240E0,-2.385405159E1,-1.402050018E0,2.461235317E1
1.610854648E0,-6.319050312E0,-2.362395096E1,-1.786050081E0,2.451961318E1
1.612817459E0,-6.511050224E0,-2.354805183E1,-2.130000114E0,2.452430265E1
1.614780400E0,-6.166050434E0,-2.354805183E1,-2.169000149E0,2.443840185E1
1.616743303E0,-5.361000061E0,-2.385405159E1,-1.708950043E0,2.450870476E1
1.618706365E0,-3.904950142E0,-2.446800041E1,-1.096050024E0,2.480187504E1
1.620669380E0,-2.946000099E0,-2.496600151E1,-3.289500177E-1,2.514136743E1
1.622631067E0,-2.485950232E0,-2.519595146E1,3.600000143E-1,2.532085146E1
1.624593146E0,-2.065050125E0,-2.538705063E1,9.730500579E-1,2.548948014E1
1.626555988E0,-1.987950087E0,-2.519595146E1,1.395000100E0,2.531272291E1
1.628518606E0,-1.720050097E0,-2.504205132E1,1.701000094E0,2.515862293E1
1.630481042E0,-1.567050099E0,-2.469705200E1,2.161050081E0,2.484089695E1
1.632443531E0,-1.567050099E0,-2.431395149E1,2.698050022E0,2.451333019E1
1.634406198E0,-1.720050097E0,-2.385405159E1,2.965950251E0,2.409919522E1
1.636368822E0,-1.834950089E0,-2.335605049E1,3.043050051E0,2.362482360E1
1.638331437E0,-1.758000135E0,-2.304900169E1,3.043050051E0,2.331538542E1
1.640294055E0,-1.642950058E0,-2.262795067E1,3.118950129E0,2.290090143E1
1.642257029E0,-1.375050068E0,-2.212995148E1,3.349050045E0,2.242413100E1
1.644219899E0,-1.144950032E0,-2.178495026E1,3.733050108E0,2.213211764E1
1.646182782E0,-1.068000078E0,-2.124795151E1,3.808950186E0,2.161305552E1
1.648145664E0,-1.106999993E0,-2.059605026E1,3.579000235E0,2.093399097E1
1.650108234E0,-1.068000078E0,-2.005995178E1,3.426000118E0,2.037841423E1
1.652070896E0,-9.919500351E-1,-1.944705009E1,3.273000240E0,1.974548690E1
1.654033863E0,-8.770500422E-1,-1.883295059E1,3.196050167E0,1.912234247E1
1.655996741E0,-8.770500422E-1,-1.825800133E1,3.043050051E0,1.853062284E1
1.657959158E0,-6.850500107E-1,-1.764495087E1,2.965950251E0,1.790559816E1
1.659921724E0,-6.850500107E-1,-1.710900116E1,2.965950251E0,1.737768900E1
1.661884167E0,-5.700000525E-1,-1.653404999E1,2.889000177E0,1.679422612E1
1.663846647E0,-4.930500090E-1,-1.599705029E1,2.851050138E0,1.625660490E1
1.665809240E0,-3.019500077E-1,-1.557600117E1,2.698050022E0,1.581083363E1
1.667771799E0,-1.870500147E-1,-1.507695103E1,2.583000183E0,1.529775572E1
1.669734211E0,-4.930500090E-1,-1.473195076E1,2.430000067E0,1.493915566E1
1.671696690E0,-1.099500060E-1,-1.411905098E1,2.314950228E0,1.430799371E1
1.673659372E0,2.340000123E-1,-1.365900040E1,2.506050110E0,1.388896450E1
1.675621995E0,3.490500152E-1,-1.319895077E1,2.467950106E0,1.343223418E1
1.677586006E0,6.550500393E-1,-1.266300106E1,2.506050110E0,1.292520691E1
1.679549611E0,9.240000248E-1,-1.220295048E1,2.506050110E0,1.249183988E1
1.681512477E0,1.077000022E0,-1.170405102E1,2.583000183E0,1.203397811E1
1.683475550E0,1.192050099E0,-1.120605087E1,2.506050110E0,1.154455918E1
1.685438402E0,1.269000053E0,-1.066995049E1,2.391000032E0,1.100795556E1
1.687401319E0,1.306950092E0,-1.009500027E1,2.200050116E0,1.041428679E1
1.689364242E0,1.422000051E0,-9.558000565E0,1.969950080E0,9.861955296E0
1.691327163E0,1.575000048E0,-9.060000420E0,1.855050087E0,9.381121659E0
1.693290123E0,1.729050040E0,-8.523000717E0,1.701000094E0,8.861408273E0
1.695253077E0,1.843950033E0,-8.025000572E0,1.510050058E0,8.371441757E0
1.697215951E0,1.996950150E0,-7.488000393E0,1.432950020E0,7.881072614E0
1.699178849E0,2.149950027E0,-7.027950287E0,1.203000069E0,7.447253153E0
1.701141415E0,2.265000105E0,-6.492000103E0,9.730500579E-1,6.944286661E0
1.703104079E0,2.380050182E0,-5.994000435E0,6.280500293E-1,6.479747443E0
1.705067796E0,2.494950056E0,-5.457000256E0,4.750500321E-1,6.019078011E0
1.707031215E0,2.533950090E0,-4.882050037E0,2.449500114E-1,5.505934629E0
1.708993874E0,2.686950207E0,-4.384050369E0,2.070000172E-1,5.146109993E0
1.710956756E0,2.802000046E0,-3.886050224E0,9.195000678E-2,4.791768505E0
1.712919460E0,2.878050089E0,-3.426000118E0,9.195000678E-2,4.475388690E0
1.714882217E0,2.992950201E0,-2.965950251E0,-2.205000073E-2,4.213679864E0
1.716844877E0,2.992950201E0,-2.506050110E0,-9.900000691E-2,3.904848148E0
1.718807549E0,2.955000162E0,-2.161050081E0,-2.205000073E-2,3.660962935E0
1.720770514E0,3.031950235E0,-1.816050053E0,-6.105000153E-2,3.534754182E0
1.722733393E0,3.070050240E0,-1.548000097E0,-2.205000073E-2,3.438313391E0
1.724695964E0,3.070050240E0,-1.356000066E0,5.295000225E-2,3.356597735E0
1.726658626E0,3.184950113E0,-1.164000034E0,1.300500035E-1,3.393481444E0
1.728621412E0,3.184950113E0,-8.959500194E-1,5.295000225E-2,3.308993406E0
1.730584162E0,3.184950113E0,-6.660000086E-1,5.295000225E-2,3.254269033E0
1.732546935E0,3.184950113E0,-5.890500546E-1,9.195000678E-2,3.240268815E0
1.734509701E0,3.108000040E0,-3.979500234E-1,1.680000126E-1,3.137873878E0
1.736472606E0,2.917050123E0,-2.440500110E-1,1.300500035E-1,2.930128808E0
1.738435470E0,2.725050211E0,-1.680000126E-1,1.680000126E-1,2.735387845E0
1.740398418E0,2.649000168E0,-1.290000081E-1,2.070000172E-1,2.660205236E0
1.742361331E0,2.533950090E0,-5.295000225E-2,1.680000126E-1,2.540065111E0
1.744323401E0,2.419050217E0,2.295000106E-2,2.449500114E-1,2.431528565E0
1.746285718E0,2.304000139E0,1.380000114E-1,2.449500114E-1,2.321090509E0
1.748248744E0,2.111999989E0,2.530499995E-1,9.195000678E-2,2.129092074E0
1.750211562E0,1.959000111E0,4.060500264E-1,1.500000060E-2,2.000695643E0
1.752174283E0,1.729050040E0,4.060500264E-1,-1.369500011E-1,1.781360707E0
1.754137030E0,1.614000082E0,5.209500194E-1,-2.520000041E-1,1.714610507E0
1.756099982E0,1.422000051E0,6.360000372E-1,-4.819500148E-1,1.630599892E0
1.758062874E0,1.306950092E0,7.129500508E-1,-7.510500550E-1,1.667480886E0
1.760025848E0,1.230000019E0,8.659500480E-1,-1.096050024E0,1.861207992E0
1.761988797E0,1.077000022E0,9.430500269E-1,-1.516950130E0,2.085763673E0
1.763951682E0,1.000050068E0,1.057950020E0,-1.939050078E0,2.424721343E0
1.765914578E0,8.850000501E-1,1.134000063E0,-2.359950066E0,2.763791878E0
1.767877370E0,7.699500322E-1,1.249050021E0,-2.935050249E0,3.281382174E0
1.769840193E0,6.169500351E-1,1.363950014E0,-3.625050068E0,3.921986102E0
1.771802232E0,5.790000558E-1,1.518000126E0,-4.200000286E0,4.503284118E0
1.773764501E0,4.260000288E-1,1.747950077E0,-4.966950417E0,5.282745682E0
1.775727564E0,3.870000243E-1,1.939050078E0,-5.580000401E0,5.919973707E0
1.777690374E0,3.870000243E-1,2.092950106E0,-6.270000458E0,6.621413362E0
1.779653677E0,2.340000123E-1,2.245950222E0,-6.691050529E0,7.061813194E0
1.781616836E0,1.960500032E-1,2.361000061E0,-6.960000515E0,7.352167304E0
1.783579855E0,2.340000123E-1,2.437050104E0,-7.150950432E0,7.558443047E0
1.785542915E0,1.960500032E-1,2.551950216E0,-7.150950432E0,7.595194375E0
1.787505814E0,2.719500065E-1,2.629050016E0,-6.921000481E0,7.408515941E0
1.789468761E0,2.719500065E-1,2.629050016E0,-6.615000248E0,7.123488547E0
1.791431904E0,3.490500152E-1,2.629050016E0,-6.154950142E0,6.702025899E0
1.793394990E0,3.109500110E-1,2.629050016E0,-5.617950439E0,6.210471885E0
1.795358021E0,4.639500082E-1,2.706000090E0,-4.852050304E0,5.574950964E0
1.797321069E0,4.639500082E-1,2.629050016E0,-4.162050247E0,4.944675506E0
1.799284021E0,4.260000288E-1,2.551950216E0,-3.472050190E0,4.330018297E0
1.801246997E0,5.020500422E-1,2.514000177E0,-2.743950129E0,3.755198190E0
1.803209550E0,5.410500169E-1,2.476050138E0,-2.130000114E0,3.310658529E0
1.805172227E0,5.020500422E-1,2.398950100E0,-1.441050053E0,2.843174472E0
1.807135147E0,5.410500169E-1,2.361000061E0,-7.890000343E-1,2.547464909E0
1.809097995E0,5.410500169E-1,2.245950222E0,-1.759500057E-1,2.316891436E0
1.811060811E0,5.790000558E-1,2.208000183E0,3.979500234E-1,2.317082237E0
1.813023626E0,6.550500393E-1,2.131050110E0,9.730500579E-1,2.432548363E0
1.814985847E0,5.790000558E-1,2.053950071E0,1.432950020E0,2.570466440E0
1.816948242E0,5.410500169E-1,2.053950071E0,1.777950048E0,2.769937254E0
1.818911255E0,5.410500169E-1,2.016000032E0,2.238000154E0,3.060332652E0
1.820874086E0,5.410500169E-1,1.939050078E0,2.620950222E0,3.304849527E0
1.822836985E0,5.020500422E-1,1.863000035E0,2.928000212E0,3.506566500E0
1.824799860E0,4.639500082E-1,1.824000120E0,3.196050167E0,3.709037978E0
1.826762972E0,4.260000288E-1,1.747950077E0,3.426000118E0,3.869661782E0
1.828726014E0,4.260000288E-1,1.671000123E0,3.655950069E0,4.042238037E0
1.830689142E0,3.490500152E-1,1.594050050E0,3.771000147E0,4.108926086E0
1.832652245E0,3.490500152E-1,1.518000126E0,3.808950186E0,4.115125978E0
1.834615471E0,3.109500110E-1,1.479000092E0,3.847950220E0,4.134108377E0
1.836578648E0,1.960500032E-1,1.363950014E0,3.808950186E0,4.050542774E0
1.838541574E0,-3.299999982E-2,1.326000094E0,3.694050074E0,3.924967668E0
1.840504573E0,-2.250000089E-1,1.249050021E0,3.541050196E0,3.761620322E0
1.842467798E0,-3.400500119E-1,1.134000063E0,3.118950129E0,3.336081542E0
1.844430956E0,-3.780000210E-1,1.018950105E0,2.851050138E0,3.051168665E0
1.846393718E0,-3.019500077E-1,9.040500522E-1,2.659050226E0,2.824717403E0
1.848356587E0,-3.400500119E-1,7.890000343E-1,2.506050110E0,2.649234270E0
1.850319699E0,-2.629500031E-1,7.129500508E-1,2.430000067E0,2.546044148E0
1.852282739E0,-1.870500147E-1,5.590500236E-1,2.314950228E0,2.388832182E0
1.854245598E0,-3.299999982E-2,4.060500264E-1,2.238000154E0,2.274776981E0
1.856208510E0,4.050000105E-3,2.910000086E-1,2.085000038E0,2.105213188E0
1.858172227E0,8.100000024E-2,1.759500057E-1,2.008050203E0,2.017370820E0
1.860135657E0,1.189500093E-1,9.900000691E-2,1.893000126E0,1.899315556E0
1.862099440E0,1.960500032E-1,-1.500000060E-2,1.893000126E0,1.903184195E0
1.864063119E0,2.719500065E-1,-5.295000225E-2,1.816050053E0,1.837062411E0
1.866026409E0,3.870000243E-1,-1.290000081E-1,1.816050053E0,1.861302720E0
1.867989813E0,3.870000243E-1,-1.680000126E-1,1.777950048E0,1.827320278E0
1.869953000E0,4.639500082E-1,-1.680000126E-1,1.777950048E0,1.845150397E0
1.871916261E0,5.020500422E-1,-2.059500068E-1,1.777950048E0,1.858917972E0
1.873879711E0,5.790000558E-1,-2.830500007E-1,1.777950048E0,1.891154341E0
1.875843105E0,5.410500169E-1,-3.979500234E-1,1.740000129E0,1.865127285E0
1.877806849E0,6.169500351E-1,-4.360500276E-1,1.777950048E0,1.931805722E0
1.879770490E0,6.550500393E-1,-5.509500504E-1,1.816050053E0,2.007653931E0
1.881733601E0,6.940500140E-1,-5.890500546E-1,1.893000126E0,2.100508240E0
1.883696871E0,7.320000529E-1,-7.429500222E-1,1.893000126E0,2.161307079E0
1.885659915E0,8.470500112E-1,-7.810500264E-1,1.930950046E0,2.248577538E0
1.887623025E0,8.470500112E-1,-7.429500222E-1,1.969950080E0,2.269398990E0
1.889586320E0,8.470500112E-1,-8.190000653E-1,1.969950080E0,2.295421126E0
1.891549561E0,8.089500666E-1,-9.340500236E-1,1.969950080E0,2.325414581E0
1.893513186E0,8.089500666E-1,-9.340500236E-1,2.008050203E0,2.357777614E0
1.895476673E0,7.699500322E-1,-9.340500236E-1,2.161050081E0,2.476975969E0
1.897439681E0,8.089500666E-1,-9.730500579E-1,2.200050116E0,2.538000618E0
1.899402829E0,7.320000529E-1,-9.730500579E-1,2.275950193E0,2.581201227E0
1.901365894E0,8.470500112E-1,-1.048950076E0,2.238000154E0,2.612744663E0
1.903328983E0,8.850000501E-1,-1.011000037E0,2.238000154E0,2.610362208E0
1.905292177E0,8.089500666E-1,-1.048950076E0,2.353049994E0,2.700285308E0
1.907255351E0,7.320000529E-1,-1.048950076E0,2.314950228E0,2.644827952E0
1.909218772E0,7.699500322E-1,-1.126049995E0,2.275950193E0,2.653443221E0
1.911182120E0,9.240000248E-1,-1.087950110E0,2.275950193E0,2.686514614E0
1.913145152E0,1.000050068E0,-1.087950110E0,2.314950228E0,2.746403127E0
1.915108276E0,1.000050068E0,-1.087950110E0,2.314950228E0,2.746403127E0
1.917071395E0,1.077000022E0,-1.011000037E0,2.275950193E0,2.713300464E0
1.919034512E0,1.153950095E0,-1.011000037E0,2.430000067E0,2.873781867E0
1.920997761E0,1.114950061E0,-9.340500236E-1,2.467950106E0,2.864671152E0
1.922960971E0,1.077000022E0,-9.730500579E-1,2.467950106E0,2.863133456E0
1.924924206E0,1.114950061E0,-8.959500194E-1,2.506050110E0,2.885502942E0
1.926887433E0,1.153950095E0,-8.190000653E-1,2.506050110E0,2.877959187E0
1.928850286E0,1.192050099E0,-7.810500264E-1,2.506050110E0,2.882934223E0
1.930813262E0,1.114950061E0,-7.039500475E-1,2.583000183E0,2.900094697E0
1.932776131E0,1.039050102E0,-5.890500546E-1,2.545050144E0,2.811384947E0
1.934739031E0,1.000050068E0,-4.740000367E-1,2.467950106E0,2.704728063E0
1.936701957E0,9.240000248E-1,-3.589500189E-1,2.275950193E0,2.482452506E0
1.938664875E0,9.240000248E-1,-2.059500068E-1,2.161050081E0,2.359306870E0
1.940627808E0,9.240000248E-1,-1.290000081E-1,2.122950077E0,2.318907949E0
1.942590730E0,9.240000248E-1,-5.295000225E-2,2.046000004E0,2.245594746E0
1.944552979E0,8.850000501E-1,2.295000106E-2,1.969950080E0,2.159734963E0
1.946515425E0,9.240000248E-1,6.105000153E-2,1.855050087E0,2.073334024E0
1.948478564E0,8.850000501E-1,1.759500057E-1,1.816050053E0,2.027861259E0
1.950441500E0,9.619500637E-1,2.910000086E-1,1.816050053E0,2.075588284E0
1.952404466E0,9.240000248E-1,3.289500177E-1,1.740000129E0,1.997394455E0
1.954367423E0,1.000050068E0,3.679500222E-1,1.663050056E0,1.975151347E0
1.956330476E0,1.000050068E0,4.830000103E-1,1.624950051E0,1.968210308E0
1.958293500E0,1.077000022E0,4.830000103E-1,1.585950017E0,1.976981415E0
1.960256407E0,1.039050102E0,5.980500579E-1,1.548000097E0,1.957956406E0
1.962219348E0,1.077000022E0,5.980500579E-1,1.395000100E0,1.861079847E0
1.964182162E0,1.114950061E0,6.360000372E-1,1.240950108E0,1.785375830E0
1.966144992E0,1.269000053E0,7.129500508E-1,8.959500194E-1,1.709206058E0
1.968107885E0,1.306950092E0,7.510500550E-1,7.429500222E-1,1.680526544E0
1.970070759E0,1.422000051E0,9.040500522E-1,5.509500504E-1,1.772832930E0
1.972034277E0,1.614000082E0,9.810000658E-1,9.195000678E-2,1.890981808E0
1.973997606E0,1.996950150E0,1.018950105E0,-6.739500165E-1,2.340999325E0
1.975960826E0,2.341950178E0,1.018950105E0,-1.441050053E0,2.932510052E0
1.977924074E0,2.610000134E0,1.057950020E0,-2.359950066E0,3.674333035E0
1.979886941E0,3.070050240E0,9.430500269E-1,-3.586950064E0,4.814640442E0
1.981849920E0,3.453000069E0,8.659500480E-1,-4.774950027E0,5.955940457E0
1.983812968E0,3.837000132E0,9.040500522E-1,-5.925000191E0,7.116565447E0
1.985775995E0,4.182000160E0,9.430500269E-1,-7.036050320E0,8.239203408E0
1.987738931E0,4.527000427E0,9.040500522E-1,-8.722949982E0,9.869189214E0
1.989701905E0,4.909950256E0,8.280000687E-1,-1.063905048E1,1.174659912E1
1.991664775E0,5.331000328E0,7.510500550E-1,-1.255605030E1,1.366155335E1
1.993627675E0,5.791050434E0,4.830000103E-1,-1.474005032E1,1.584419886E1
1.995591322E0,6.097950459E0,2.295000106E-2,-1.661805153E1,1.770155821E1
1.997554750E0,6.289950371E0,-4.360500276E-1,-1.795995140E1,1.903453361E1
1.999517767E0,6.175050259E0,-1.240950108E0,-1.795995140E1,1.903236867E1
2.001480905E0,5.638050079E0,-1.893000126E0,-1.661805153E1,1.765023215E1
2.003443656E0,4.603050232E0,-2.506050110E0,-1.474005032E1,1.564408648E1
2.005406521E0,3.682950258E0,-2.889000177E0,-1.274700069E1,1.357926623E1
2.007369588E0,2.802000046E0,-3.157050133E0,-1.056300068E1,1.137519904E1
2.009332596E0,2.035050154E0,-3.387000084E0,-8.799000740E0,9.645497018E0
2.011295551E0,1.459950089E0,-3.579000235E0,-7.036050320E0,8.027870268E0
2.013258521E0,1.269000053E0,-3.694050074E0,-5.464950085E0,6.717294583E0
2.015221255E0,1.153950095E0,-3.771000147E0,-4.009050369E0,5.623568955E0
2.017184059E0,9.240000248E-1,-3.808950186E0,-2.859000206E0,4.851366791E0
2.019146957E0,7.320000529E-1,-3.808950186E0,-1.632000089E0,4.208010205E0
2.021109827E0,6.169500351E-1,-3.808950186E0,-2.910000086E-1,3.869549052E0
2.023071008E0,3.870000243E-1,-3.694050074E0,1.011000037E0,3.849402037E0
2.025032680E0,2.340000123E-1,-3.541050196E0,2.122950077E0,4.135300415E0
2.026995817E0,2.340000123E-1,-3.271950245E0,3.081000090E0,4.500330650E0
2.028958524E0,1.570500135E-1,-3.157050133E0,3.733050108E0,4.891553266E0
2.030921439E0,1.960500032E-1,-3.004050255E0,4.192950249E0,5.161742470E0
2.032884293E0,2.340000123E-1,-2.965950251E0,4.498950005E0,5.393715606E0
2.034847049E0,2.340000123E-1,-2.926950216E0,4.614000320E0,5.469076022E0
2.036809834E0,1.960500032E-1,-2.965950251E0,4.806000233E0,5.650923352E0
2.038772780E0,1.570500135E-1,-3.004050255E0,5.035950184E0,5.865984734E0
2.040735678E0,4.050000105E-3,-3.271950245E0,4.996950150E0,5.972870801E0
2.042698786E0,-1.480500102E-1,-3.771000147E0,5.112000465E0,6.354125406E0
2.044661832E0,-4.930500090E-1,-5.304000378E0,4.308000088E0,6.850867323E0
2.046624605E0,-3.367950201E0,-1.063095093E1,3.733050108E0,1.175992642E1
2.048587454E0,-6.894000530E0,-1.760700035E1,4.231050014E0,1.937615774E1
2.050550704E0,-1.153200054E1,-2.278095055E1,4.192950249E0,2.587546282E1
2.052513837E0,-1.651395035E1,-2.753400040E1,3.388050079E0,3.228483572E1
2.054476770E0,-2.000205040E1,-3.393405151E1,3.310950041E0,3.952928361E1
2.056439762E0,-2.226300049E1,-4.060305023E1,4.996950150E0,4.657486865E1
2.058403001E0,-2.345205116E1,-4.673595047E1,7.335000515E0,5.280198862E1
2.060366158E0,-2.333700180E1,-5.275305176E1,9.597000122E0,5.847736771E1
2.062329222E0,-2.149695015E1,-5.785095215E1,1.204995060E1,6.288125984E1
2.064292314E0,-1.889100075E1,-6.110895157E1,1.381305027E1,6.543679568E1
2.066255208E0,-1.593900108E1,-6.363795471E1,1.526895046E1,6.735712200E1
2.068218160E0,-1.233705044E1,-6.582300568E1,1.684095001E1,6.905424308E1
2.070181257E0,-7.737000465E0,-6.743295288E1,1.768395042E1,7.014118913E1
2.072144312E0,-3.253050089E0,-6.831405640E1,1.764599991E1,7.063125334E1
2.074108474E0,9.619500637E-1,-6.915705109E1,1.733895111E1,7.130401313E1
2.076072312E0,4.488000393E0,-6.996195221E1,1.661100006E1,7.204680581E1
2.078035079E0,7.669050217E0,-7.080599976E1,1.569105053E1,7.292813586E1
2.079998160E0,1.065900040E1,-7.164900208E1,1.408095074E1,7.379340730E1
2.081961041E0,1.464495087E1,-7.279905701E1,1.120695019E1,7.509842222E1
2.083923992E0,1.912905121E1,-7.348905182E1,5.227050304E0,7.611756297E1
2.085887630E0,2.710200119E1,-7.452300262E1,-1.769099998E1,8.124757147E1
2.087851066E0,3.775695038E1,-7.471500397E1,-4.739505386E1,9.619880587E1
2.089813542E0,3.967305374E1,-7.153395081E1,-4.574700165E1,9.372217171E1
2.091776299E0,3.994095230E1,-6.620595551E1,-4.570905304E1,8.982107628E1
2.093738940E0,3.492000198E1,-5.854095459E1,-3.601200104E1,7.709289281E1
2.095701612E0,2.668005180E1,-5.029995346E1,-2.206095123E1,6.106223098E1
2.097663857E0,1.763505173E1,-4.248105240E1,-8.340000153E0,4.674602085E1
2.099626227E0,1.062105083E1,-3.634905243E1,1.855050087E0,3.791439758E1
2.101588299E0,4.987050056E0,-3.209505081E1,8.254950523E0,3.351279104E1
2.103550458E0,-2.629500031E-1,-2.849205208E1,1.090005016E1,3.050700359E1
2.105513331E0,-4.518000126E0,-2.584695053E1,9.903000832E0,2.804543817E1
2.107475995E0,-7.162050247E0,-2.427600098E1,7.872000217E0,2.650636857E1
2.109438603E0,-8.311950684E0,-2.293395042E1,6.070950508E0,2.513784092E1
2.111401227E0,-9.385050774E0,-2.170800018E1,5.151000023E0,2.420432299E1
2.113364020E0,-9.730050087E0,-2.071095085E1,4.959000111E0,2.341386431E1
2.115326764E0,-9.844950676E0,-2.002200127E1,4.806000233E0,2.282326065E1
2.117289359E0,-9.615000725E0,-1.948500061E1,4.653000355E0,2.222079882E1
2.119251997E0,-9.154950142E0,-1.933200073E1,4.345950127E0,2.182719970E1
2.121214608E0,-8.427000046E0,-1.948500061E1,4.000950336E0,2.160294383E1
2.123177227E0,-7.546050549E0,-1.998300171E1,3.771000147E0,2.169063573E1
2.125139842E0,-6.778950214E0,-2.052000046E1,3.310950041E0,2.186291323E1
2.127102458E0,-5.821050167E0,-2.121000099E1,2.773950100E0,2.216852648E1
2.129065238E0,-4.978050232E0,-2.163105011E1,2.583000183E0,2.234625702E1
2.131027980E0,-4.134000301E0,-2.212995148E1,2.620950222E0,2.266482056E1
2.132990799E0,-3.367950201E0,-2.232105064E1,2.698050022E0,2.273437627E1
2.134953595E0,-2.830950022E0,-2.239800072E1,2.889000177E0,2.276029517E1
2.136916720E0,-2.410050154E0,-2.239800072E1,2.812950134E0,2.270223483E1
2.138879749E0,-2.026050091E0,-2.243595123E1,2.773950100E0,2.269739161E1
2.140842429E0,-1.950000048E0,-2.243595123E1,2.812950134E0,2.269553032E1
2.142805212E0,-2.026050091E0,-2.224500084E1,2.620950222E0,2.249031617E1
2.144768159E0,-2.218050003E0,-2.193795013E1,2.506050110E0,2.219174822E1
2.146731057E0,-1.950000048E0,-2.163105011E1,2.583000183E0,2.187182477E1
2.148694029E0,-1.681950092E0,-2.143995094E1,3.004050255E0,2.171462112E1
2.150656980E0,-1.528050065E0,-2.113305092E1,3.463950157E0,2.146950695E1
2.152619524E0,-1.567050099E0,-2.059605026E1,3.886050224E0,2.101795230E1
2.154582198E0,-1.336950064E0,-2.005995178E1,4.078050137E0,2.051388783E1
2.156544983E0,-1.144950032E0,-1.952295113E1,4.308000088E0,2.002536881E1
2.158507735E0,-1.144950032E0,-1.902495003E1,4.498950005E0,1.958316076E1
2.160470687E0,-9.919500351E-1,-1.848795128E1,4.537950039E0,1.906256273E1
2.162433581E0,-7.620000243E-1,-1.795200157E1,4.690950394E0,1.857040711E1
2.164396504E0,-6.469500065E-1,-1.741500092E1,4.729050159E0,1.805726216E1
2.166359422E0,-4.170000255E-1,-1.691700172E1,4.882050037E0,1.761230391E1
2.168322346E0,-1.870500147E-1,-1.641900063E1,4.768050194E0,1.709832951E1
2.170285268E0,-3.299999982E-2,-1.588200092E1,4.614000320E0,1.653868318E1
2.172248012E0,2.340000123E-1,-1.534605026E1,4.384050369E0,1.596170142E1
2.174210809E0,4.260000288E-1,-1.488600063E1,4.192950249E0,1.547111252E1
2.176174642E0,6.940500140E-1,-1.438695049E1,4.116000175E0,1.498023723E1
2.178138148E0,1.000050068E0,-1.388895035E1,3.886050224E0,1.445698545E1
2.180100792E0,1.306950092E0,-1.350600052E1,3.388050079E0,1.398567309E1
2.182063688E0,1.384050012E0,-1.296900082E1,2.965950251E0,1.337562849E1
2.184026480E0,1.575000048E0,-1.247100067E1,2.545050144E0,1.282512234E1
2.185989303E0,1.767000079E0,-1.197300053E1,2.046000004E0,1.227441025E1
2.187951718E0,1.959000111E0,-1.143600082E1,1.548000097E0,1.170538767E1
2.189914242E0,2.188950062E0,-1.105305099E1,1.240950108E0,1.133584562E1
2.191877773E0,2.457000017E0,-1.051605034E1,5.130000114E-1,1.081144453E1
2.193841009E0,2.649000168E0,-1.001805019E1,-1.759500057E-1,1.036385498E1
2.195803654E0,2.878050089E0,-9.481050491E0,-7.510500550E-1,9.936677861E0
2.197766472E0,2.992950201E0,-8.907000542E0,-1.516950130E0,9.518064260E0
2.199729098E0,3.147000074E0,-8.332050323E0,-2.130000114E0,9.157705638E0
2.201691780E0,3.262050152E0,-7.717950344E0,-2.551950216E0,8.759005572E0
2.203654518E0,3.376950264E0,-7.182000160E0,-2.743950129E0,8.397272277E0
2.205617240E0,3.492000103E0,-6.529950142E0,-2.974050045E0,7.979930278E0
2.207580198E0,3.607050180E0,-5.994000435E0,-3.088950157E0,7.647252140E0
2.209543086E0,3.721950293E0,-5.457000256E0,-3.049950123E0,7.275572934E0
2.211505991E0,3.837000132E0,-4.920000076E0,-2.896950245E0,6.879047280E0
2.213468908E0,3.874950171E0,-4.422000408E0,-2.782050133E0,6.504546823E0
2.215431698E0,3.837000132E0,-4.000950336E0,-2.475000143E0,6.070897735E0
2.217394525E0,3.798000097E0,-3.541050196E0,-2.053950071E0,5.584133964E0
2.219357419E0,3.682950258E0,-3.157050133E0,-1.671000123E0,5.130626624E0
2.221320293E0,3.645000219E0,-2.773950100E0,-1.326000094E0,4.768553450E0
2.223282910E0,3.529950142E0,-2.428950071E0,-9.420000315E-1,4.387221275E0
2.225245602E0,3.529950142E0,-2.046000004E0,-5.970000029E-1,4.123478268E0
2.227208564E0,3.529950142E0,-1.701000094E0,-1.759500057E-1,3.922359969E0
2.229171446E0,3.607050180E0,-1.393950105E0,5.295000225E-2,3.867390800E0
2.231133296E0,3.682950258E0,-1.126049995E0,2.449500114E-1,3.859029892E0
2.233095448E0,3.721950293E0,-8.959500194E-1,3.979500234E-1,3.848896548E0
2.235058272E0,3.721950293E0,-6.660000086E-1,4.750500321E-1,3.810792900E0
2.237020903E0,3.682950258E0,-4.740000367E-1,3.979500234E-1,3.734590053E0
2.238984282E0,3.645000219E0,-3.210000098E-1,3.220500052E-1,3.673252484E0
2.240947441E0,3.529950142E0,-1.680000126E-1,1.300500035E-1,3.536337797E0
2.242910325E0,3.415050268E0,-1.290000081E-1,5.295000225E-2,3.417895996E0
2.244873290E0,3.262050152E0,-5.295000225E-2,-2.205000073E-2,3.262554382E0
2.246835429E0,3.108000040E0,1.380000114E-1,-2.910000086E-1,3.124642261E0
2.248797818E0,2.992950201E0,2.530499995E-1,-5.209500194E-1,3.048470786E0
2.250760877E0,2.878050089E0,4.440000355E-1,-7.120500207E-1,2.997886518E0
2.252723739E0,2.764050245E0,6.360000372E-1,-1.057050109E0,3.026850630E0
2.254686673E0,2.686950207E0,8.280000687E-1,-1.402050018E0,3.141819502E0
2.256649585E0,2.610000134E0,9.810000658E-1,-1.824000120E0,3.331882090E0
2.258612660E0,2.533950090E0,1.096050024E0,-2.284050226E0,3.583170963E0
2.260575677E0,2.533950090E0,1.249050021E0,-2.782050133E0,3.964950436E0
2.262538585E0,2.533950090E0,1.402950048E0,-3.319050074E0,4.405140780E0
2.264501525E0,2.533950090E0,1.555950046E0,-3.970050097E0,4.960159410E0
2.266464490E0,2.572050095E0,1.708950043E0,-4.621950150E0,5.558630688E0
2.268427447E0,2.572050095E0,1.863000035E0,-5.235000134E0,6.123025169E0
2.270390679E0,2.572050095E0,2.016000032E0,-6.001950264E0,6.833966988E0
2.272353831E0,2.610000134E0,2.092950106E0,-6.499950409E0,7.310396443E0
2.274316581E0,2.725050211E0,2.208000183E0,-7.036050320E0,7.861753466E0
2.276279449E0,2.802000046E0,2.245950222E0,-7.420050144E0,8.243339178E0
2.278242560E0,2.955000162E0,2.322000027E0,-7.611000538E0,8.488288359E0
2.280205600E0,3.070050240E0,2.361000061E0,-7.534950256E0,8.472013050E0
2.282168240E0,3.184950113E0,2.398950100E0,-7.611000538E0,8.592217292E0
2.284131025E0,3.453000069E0,2.322000027E0,-7.381050587E0,8.473181301E0
2.286093835E0,3.607050180E0,2.361000061E0,-7.075050354E0,8.285014774E0
2.288056638E0,3.760050297E0,2.361000061E0,-6.691050529E0,8.030096930E0
2.290019358E0,3.990000248E0,2.398950100E0,-6.117000103E0,7.687181136E0
2.291982102E0,4.182000160E0,2.437050104E0,-5.464950085E0,7.300275199E0
2.293944685E0,4.372950077E0,2.476050138E0,-4.698000431E0,6.879296818E0
2.295907323E0,4.717950344E0,2.514000177E0,-3.970050097E0,6.658870033E0
2.297870654E0,4.948050022E0,2.514000177E0,-3.280050039E0,6.446869331E0
2.299833782E0,5.178000450E0,2.398950100E0,-2.551950216E0,6.251327871E0
2.301795995E0,5.485050201E0,2.322000027E0,-1.977000117E0,6.275825786E0
2.303758477E0,5.638050079E0,2.245950222E0,-1.326000094E0,6.212099271E0
2.305721056E0,5.715000153E0,2.092950106E0,-7.890000343E-1,6.137115605E0
2.307683615E0,5.868000507E0,1.824000120E0,-2.910000086E-1,6.151836100E0
2.309645205E0,5.905950069E0,1.633050084E0,9.195000678E-2,6.128258611E0
2.311607079E0,5.791050434E0,1.326000094E0,5.130000114E-1,5.963028626E0
2.313570136E0,5.523000240E0,1.096050024E0,9.349500537E-1,5.707800707E0
2.315532846E0,5.062950134E0,8.659500480E-1,1.356000066E0,5.312444797E0
2.317495607E0,4.450050354E0,6.360000372E-1,1.510050058E0,4.742119292E0
2.319458366E0,3.913050175E0,4.060500264E-1,1.663050056E0,4.271132611E0
2.321421182E0,3.568050146E0,2.530499995E-1,1.969950080E0,4.083591491E0
2.323383981E0,3.223050117E0,9.900000691E-2,2.430000067E0,4.037666825E0
2.325347601E0,2.839950085E0,-1.500000060E-2,2.698050022E0,3.917271424E0
2.327310981E0,2.572050095E0,-1.290000081E-1,2.928000212E0,3.899393277E0
2.329273461E0,2.304000139E0,-1.290000081E-1,3.043050051E0,3.819058949E0
2.331236209E0,1.920000076E0,-1.290000081E-1,3.234000206E0,3.763216527E0
2.333198666E0,1.575000048E0,-1.680000126E-1,3.388050079E0,3.740017713E0
2.335161209E0,1.269000053E0,-1.290000081E-1,3.463950157E0,3.691334830E0
2.337123611E0,1.000050068E0,-1.680000126E-1,3.426000118E0,3.572926105E0
2.339086055E0,6.940500140E-1,-1.680000126E-1,3.349050045E0,3.424334334E0
2.341048140E0,4.260000288E-1,-1.680000126E-1,3.196050167E0,3.228689626E0
2.343010344E0,3.109500110E-1,-2.059500068E-1,3.043050051E0,3.065821085E0
2.344973389E0,1.189500093E-1,-2.830500007E-1,2.928000212E0,2.944053608E0
2.346936188E0,8.100000024E-2,-2.830500007E-1,2.698050022E0,2.714065626E0
2.348898457E0,8.100000024E-2,-3.210000098E-1,2.736000061E0,2.755956883E0
2.350860882E0,8.100000024E-2,-3.589500189E-1,2.620950222E0,2.646655660E0
2.352823353E0,1.570500135E-1,-4.360500276E-1,2.467950106E0,2.511091806E0
2.354785807E0,2.340000123E-1,-5.130000114E-1,2.430000067E0,2.494559148E0
2.356748450E0,4.260000288E-1,-6.280500293E-1,2.314950228E0,2.436168594E0
2.358711038E0,4.639500082E-1,-7.039500475E-1,2.314950228E0,2.463694347E0
2.360673794E0,5.410500169E-1,-7.429500222E-1,2.314950228E0,2.490723673E0
2.362636500E0,5.410500169E-1,-7.810500264E-1,2.238000154E0,2.431340979E0
2.364599958E0,5.790000558E-1,-7.429500222E-1,2.122950077E0,2.322527251E0
2.366563226E0,6.169500351E-1,-8.580000401E-1,2.008050203E0,2.269153374E0
2.368525776E0,6.550500393E-1,-8.190000653E-1,1.969950080E0,2.231715703E0
2.370488536E0,6.169500351E-1,-8.959500194E-1,1.893000126E0,2.183301001E0
2.372451261E0,6.550500393E-1,-8.190000653E-1,1.855050087E0,2.130976885E0
2.374413997E0,6.940500140E-1,-8.190000653E-1,1.740000129E0,2.044521210E0
2.376376247E0,6.940500140E-1,-8.580000401E-1,1.740000129E0,2.060453819E0
2.378338660E0,6.940500140E-1,-7.810500264E-1,1.740000129E0,2.029616962E0
2.380301309E0,6.550500393E-1,-8.190000653E-1,1.740000129E0,2.031613179E0
2.382263889E0,6.169500351E-1,-7.810500264E-1,1.777950048E0,2.037589965E0
2.384226691E0,5.790000558E-1,-7.429500222E-1,1.855050087E0,2.080487113E0
2.386189428E0,6.169500351E-1,-7.429500222E-1,1.816050053E0,2.056851933E0
2.388151463E0,5.790000558E-1,-6.280500293E-1,1.893000126E0,2.076809423E0
2.390113718E0,5.020500422E-1,-5.890500546E-1,1.855050087E0,2.010036078E0
2.392076575E0,4.639500082E-1,-5.130000114E-1,1.930950046E0,2.051094025E0
2.394039255E0,3.870000243E-1,-4.740000367E-1,2.008050203E0,2.099216681E0
2.396001861E0,3.109500110E-1,-3.979500234E-1,2.085000038E0,2.145292355E0
2.397964488E0,3.109500110E-1,-3.979500234E-1,2.238000154E0,2.294275228E0
2.399927254E0,2.340000123E-1,-3.210000098E-1,2.275950193E0,2.310356313E0
2.401889966E0,1.570500135E-1,-3.210000098E-1,2.314950228E0,2.342370652E0
2.403852566E0,1.570500135E-1,-2.830500007E-1,2.430000067E0,2.451465344E0
2.405815199E0,1.570500135E-1,-2.440500110E-1,2.583000183E0,2.599252789E0
2.407777676E0,4.200000316E-2,-2.059500068E-1,2.545050144E0,2.553714871E0
2.409740199E0,4.050000105E-3,-2.059500068E-1,2.545050144E0,2.553372680E0
2.411703023E0,-3.299999982E-2,-2.440500110E-1,2.545050144E0,2.556937552E0
2.413665749E0,-3.299999982E-2,-2.059500068E-1,2.545050144E0,2.553582707E0
2.415628886E0,4.050000105E-3,-2.440500110E-1,2.467950106E0,2.479990834E0
2.417591903E0,4.050000105E-3,-2.830500007E-1,2.545050144E0,2.560744802E0
2.419554766E0,4.050000105E-3,-3.210000098E-1,2.506050110E0,2.526528164E0
2.421517674E0,4.200000316E-2,-3.210000098E-1,2.430000067E0,2.451470035E0
2.423480461E0,4.050000105E-3,-2.830500007E-1,2.391000032E0,2.407699080E0
2.425443286E0,4.050000105E-3,-3.210000098E-1,2.391000032E0,2.412454883E0
2.427406000E0,-7.200000435E-2,-2.830500007E-1,2.314950228E0,2.333301494E0
2.429368747E0,-3.299999982E-2,-3.210000098E-1,2.238000154E0,2.261144555E0
2.431331340E0,4.050000105E-3,-3.589500189E-1,2.161050081E0,2.190661766E0
2.433293978E0,4.200000316E-2,-3.979500234E-1,2.122950077E0,2.160334523E0
2.435256610E0,4.200000316E-2,-3.979500234E-1,2.008050203E0,2.047533599E0
2.437219260E0,1.570500135E-1,-3.979500234E-1,1.930950046E0,1.977775773E0
2.439182185E0,2.719500065E-1,-4.740000367E-1,1.777950048E0,1.860037423E0
2.441145029E0,3.109500110E-1,-5.130000114E-1,1.663050056E0,1.767935069E0
2.443107471E0,3.490500152E-1,-5.890500546E-1,1.663050056E0,1.798485854E0
2.445070031E0,3.870000243E-1,-4.740000367E-1,1.624950051E0,1.736348963E0
2.447032595E0,3.490500152E-1,-3.979500234E-1,1.510050058E0,1.600141029E0
2.448995168E0,3.870000243E-1,-3.210000098E-1,1.395000100E0,1.482847027E0
2.450957791E0,3.870000243E-1,-3.210000098E-1,1.050000072E0,1.164177897E0
2.452920399E0,3.870000243E-1,-1.680000126E-1,3.600000143E-1,5.546107043E-1
2.454883557E0,3.870000243E-1,-1.290000081E-1,-3.289500177E-1,5.240402037E-1
2.456846553E0,5.790000558E-1,-1.500000060E-2,-8.659500480E-1,1.041794390E0
2.458808759E0,6.940500140E-1,1.759500057E-1,-1.210950017E0,1.406792014E0
2.460771217E0,8.089500666E-1,4.060500264E-1,-1.363950014E0,1.636959522E0
2.462733453E0,8.089500666E-1,5.980500579E-1,-1.326000094E0,1.664433938E0
2.464695755E0,6.940500140E-1,8.280000687E-1,-1.326000094E0,1.710428539E0
2.466657523E0,5.410500169E-1,9.040500522E-1,-1.249050021E0,1.634064740E0
2.468619448E0,3.109500110E-1,1.057950020E0,-1.363950014E0,1.753940647E0
2.470582215E0,4.200000316E-2,1.057950020E0,-1.441050053E0,1.788196717E0
2.472544711E0,-1.099500060E-1,1.134000063E0,-1.441050053E0,1.837027599E0
2.474507707E0,-2.250000089E-1,1.210950017E0,-1.479000092E0,1.924698994E0
2.476470557E0,-3.400500119E-1,1.173000097E0,-1.479000092E0,1.918073124E0
2.478433493E0,-3.780000210E-1,1.173000097E0,-1.479000092E0,1.925163503E0
2.480396403E0,-4.549500346E-1,1.210950017E0,-1.594050050E0,2.052894308E0
2.482359354E0,-5.320500135E-1,1.210950017E0,-1.671000123E0,2.131130820E0
2.484322307E0,-6.079500318E-1,1.173000097E0,-1.747050047E0,2.190368995E0
2.486285000E0,-6.469500065E-1,1.134000063E0,-1.824000120E0,2.243095382E0
2.488247770E0,-7.230000496E-1,1.096050024E0,-1.861950040E0,2.278357452E0
2.490210404E0,-7.620000243E-1,1.057950020E0,-1.900950074E0,2.305105956E0
2.492173078E0,-7.230000496E-1,1.057950020E0,-1.939050078E0,2.324199329E0
2.494135522E0,-7.230000496E-1,1.057950020E0,-1.977000117E0,2.355953476E0
2.496098020E0,-7.620000243E-1,1.018950105E0,-2.053950071E0,2.416115529E0
2.498060430E0,-6.469500065E-1,9.810000658E-1,-2.169000149E0,2.466873950E0
2.500022866E0,-6.079500318E-1,1.018950105E0,-2.284050226E0,2.573858581E0
2.501985376E0,-4.549500346E-1,9.430500269E-1,-2.359950066E0,2.581799217E0
2.503947864E0,-4.170000255E-1,8.280000687E-1,-2.398950100E0,2.571854334E0
2.505910501E0,-3.400500119E-1,5.980500579E-1,-2.398950100E0,2.495648105E0
2.507873095E0,-1.480500102E-1,2.140500098E-1,-2.245050192E0,2.260085524E0
2.509836751E0,-3.299999982E-2,-9.105000645E-2,-2.130000114E0,2.132200645E0
2.511800095E0,1.189500093E-1,-4.360500276E-1,-2.014950037E0,2.065021158E0
2.513763532E0,3.870000243E-1,-8.580000401E-1,-1.977000117E0,2.189626121E0
2.515726941E0,6.169500351E-1,-1.240950108E0,-1.786050081E0,2.260654641E0
2.517689260E0,8.470500112E-1,-1.585950017E0,-1.594050050E0,2.402858036E0
2.519651885E0,1.077000022E0,-1.816050053E0,-1.441050053E0,2.556284823E0
2.521614454E0,1.192050099E0,-2.046000004E0,-1.287000060E0,2.695082301E0
2.523577039E0,1.306950092E0,-2.391000032E0,-1.171950102E0,2.966220953E0
2.525539659E0,1.345050097E0,-2.659050226E0,-1.171950102E0,3.202057918E0
2.527502268E0,1.498950124E0,-3.118950129E0,-1.516950130E0,3.778338137E0
2.529464695E0,1.614000082E0,-3.655950069E0,-2.284050226E0,4.603026462E0
2.531427183E0,1.651950121E0,-4.269000053E0,-2.859000206E0,5.396960518E0
2.533389684E0,1.614000082E0,-4.804950237E0,-2.629050016E0,5.710030388E0
2.535352181E0,1.422000051E0,-5.494950294E0,-1.900950074E0,5.985831109E0
2.537313691E0,1.230000019E0,-6.262050152E0,-9.040500522E-1,6.445423077E0
2.539275491E0,7.320000529E-1,-7.258050442E0,4.360500276E-1,7.307890251E0
2.541237214E0,-1.870500147E-1,-8.638050079E0,1.011000037E0,8.699023966E0
2.543198957E0,-1.452000022E0,-1.066995049E1,1.395000100E0,1.085827669E1
2.545162037E0,-2.830950022E0,-1.354395103E1,1.855050087E0,1.396044765E1
2.547124725E0,-4.249050140E0,-1.691700172E1,2.620950222E0,1.763827527E1
2.549087149E0,-5.361000061E0,-2.055795097E1,3.426000118E0,2.151992441E1
2.551049650E0,-6.586950302E0,-2.454405022E1,4.192950249E0,2.575614775E1
2.553011935E0,-7.852050304E0,-2.868405151E1,5.074050426E0,3.016911489E1
2.554974308E0,-9.154950142E0,-3.263100052E1,5.572050095E0,3.434593206E1
2.556937144E0,-1.045905018E1,-3.661695099E1,6.070950508E0,3.856227782E1
2.558899845E0,-1.160805035E1,-4.056495285E1,6.760950089E0,4.273140155E1
2.560862806E0,-1.241295052E1,-4.432095337E1,7.527000427E0,4.663779565E1
2.562825691E0,-1.291095066E1,-4.784700394E1,8.599950790E0,5.029898196E1
2.564788022E0,-1.279695034E1,-5.118195343E1,9.328050613E0,5.357580446E1
2.566750525E0,-1.256700039E1,-5.440095139E1,1.017195034E1,5.675263504E1
2.568713024E0,-1.206795025E1,-5.742900085E1,1.070805073E1,5.965222471E1
2.570675525E0,-1.061205006E1,-6.007395172E1,1.074705029E1,6.194347723E1
2.572637980E0,-8.197050095E0,-6.218205261E1,1.021005058E1,6.354560906E1
2.574600448E0,-4.555950165E0,-6.360000229E1,9.175050735E0,6.441970606E1
2.576564008E0,-6.469500065E-1,-6.467295074E1,7.719000340E0,6.513518303E1
2.578527234E0,3.070050240E0,-6.570795441E1,5.572050095E0,6.601521206E1
2.580490826E0,6.481050491E0,-6.670500183E1,2.736000061E0,6.707493557E1
2.582454311E0,1.019895077E1,-6.777795410E1,-1.287000060E0,6.855308912E1
2.584416914E0,1.422300053E1,-6.888899994E1,-6.576000214E0,7.064865063E1
2.586379775E0,1.851600075E1,-6.946395111E1,-1.263195038E1,7.299074570E1
2.588342348E0,2.238705063E1,-6.927194977E1,-1.734705162E1,7.483784644E1
2.590305006E0,2.533800125E1,-6.758595276E1,-1.976100159E1,7.483563657E1
2.592267479E0,2.691000175E1,-6.356205368E1,-2.094900131E1,7.213281860E1
2.594230006E0,2.522295189E1,-5.712300110E1,-2.045100021E1,6.570751834E1
2.596192456E0,2.047095108E1,-5.045400238E1,-1.792094994E1,5.732213046E1
2.598154929E0,1.433805084E1,-4.432095337E1,-1.447200108E1,4.877873947E1
2.600117684E0,8.359050751E0,-3.960705185E1,-1.113705063E1,4.198364184E1
2.602080369E0,3.108000040E0,-3.565904999E1,-7.420050144E0,3.655522746E1
2.604042478E0,-9.150000215E-1,-3.270795059E1,-5.272950172E0,3.314289155E1
2.606004756E0,-4.134000301E0,-3.044700050E1,-4.276950359E0,3.102260631E1
2.607967789E0,-6.319050312E0,-2.864505196E1,-3.702000141E0,2.956643711E1
2.609930600E0,-7.813950539E0,-2.734200096E1,-3.357000113E0,2.863411059E1
2.611893673E0,-8.925000191E0,-2.611605072E1,-2.935050249E0,2.775460779E1
2.613856672E0,-9.270000458E0,-2.504205132E1,-2.629050016E0,2.683186812E1
2.615819583E0,-9.346950531E0,-2.442900085E1,-2.359950066E0,2.626234817E1
2.617782520E0,-9.346950531E0,-2.404605103E1,-2.245050192E0,2.589629905E1
2.619745305E0,-9.309000015E0,-2.366295052E1,-1.977000117E0,2.550492576E1
2.621708135E0,-9.001950264E0,-2.350905037E1,-1.594050050E0,2.522402730E1
2.623671052E0,-8.311950684E0,-2.339400101E1,-1.057050109E0,2.484924873E1
2.625633927E0,-7.584000587E0,-2.331795120E1,-5.590500236E-1,2.452664776E1
2.627596183E0,-6.778950214E0,-2.339400101E1,-1.369500011E-1,2.435676917E1
2.629558621E0,-5.859000206E0,-2.362395096E1,3.220500052E-1,2.434178832E1
2.631521401E0,-5.053950310E0,-2.389305115E1,8.200500607E-1,2.443548217E1
2.633484081E0,-4.363950253E0,-2.408400154E1,1.395000100E0,2.451589724E1
2.635446910E0,-3.712950230E0,-2.435295105E1,1.663050056E0,2.469044268E1
2.637409696E0,-3.445050240E0,-2.435295105E1,1.930950046E0,2.467109977E1
2.639372463E0,-3.291000128E0,-2.427600098E1,2.008050203E0,2.458021910E1
2.641335236E0,-3.138000250E0,-2.431395149E1,1.969950080E0,2.459463328E1
2.643297960E0,-3.367950201E0,-2.396895027E1,1.893000126E0,2.427832604E1
2.645260698E0,-3.520950079E0,-2.366295052E1,1.855050087E0,2.399528136E1
2.647223122E0,-3.865950108E0,-2.327895164E1,1.740000129E0,2.366184186E1
2.649185631E0,-4.210950375E0,-2.293395042E1,1.510050058E0,2.336618147E1
2.651148129E0,-4.288050175E0,-2.258895111E1,1.356000066E0,2.303229955E1
2.653110631E0,-4.134000301E0,-2.232105064E1,1.279950023E0,2.273670012E1
2.655073040E0,-3.865950108E0,-2.201505089E1,1.126049995E0,2.238025970E1
2.657035477E0,-3.559950113E0,-2.170800018E1,9.349500537E-1,2.201782570E1
2.658998083E0,-3.367950201E0,-2.128605080E1,8.580000401E-1,2.156792088E1
2.660960667E0,-3.253050089E0,-2.094105148E1,5.899500251E-1,2.120042483E1
2.662923693E0,-3.214950085E0,-2.055795097E1,5.130000114E-1,2.081413994E1
2.664886590E0,-3.061050177E0,-2.002200127E1,5.509500504E-1,2.026213485E1
2.666849339E0,-2.601000071E0,-1.944705009E1,7.810500264E-1,1.963575814E1
2.668812131E0,-2.371050119E0,-1.883295059E1,1.087950110E0,1.901277313E1
2.670775104E0,-2.218050003E0,-1.818195152E1,1.279950023E0,1.836141005E1
2.672738004E0,-1.834950089E0,-1.760700035E1,1.471050024E0,1.776337500E1
2.674700707E0,-1.375050068E0,-1.707000160E1,1.624950051E0,1.720221439E1
2.676663467E0,-8.380500674E-1,-1.657200050E1,1.969950080E0,1.670970472E1
2.678626282E0,-3.019500077E-1,-1.615005112E1,2.353049994E0,1.632336268E1
2.680589081E0,1.189500093E-1,-1.565205097E1,2.659050226E0,1.587675650E1
2.682553088E0,6.550500393E-1,-1.523100090E1,2.965950251E0,1.553091562E1
2.684516754E0,1.153950095E0,-1.473195076E1,3.349050045E0,1.515183521E1
2.686479326E0,1.422000051E0,-1.427205086E1,3.426000118E0,1.474621974E1
2.688442218E0,1.804950118E0,-1.392705059E1,3.502950191E0,1.447381232E1
2.690404830E0,2.149950027E0,-1.350600052E1,3.463950157E0,1.410791572E1
2.692367525E0,2.457000017E0,-1.300800037E1,3.388050079E0,1.366469195E1
2.694330294E0,2.610000134E0,-1.243305016E1,3.234000206E0,1.310921791E1
2.696293018E0,2.917050123E0,-1.193400097E1,3.118950129E0,1.267507043E1
2.698255795E0,2.955000162E0,-1.128300095E1,2.812950134E0,1.199795086E1
2.700218556E0,3.070050240E0,-1.059300041E1,2.430000067E0,1.129343909E1
2.702181372E0,3.223050117E0,-9.940950394E0,1.969950080E0,1.063443699E1
2.704144172E0,3.415050268E0,-9.250950813E0,1.663050056E0,1.000041973E1
2.706106742E0,3.645000219E0,-8.599950790E0,1.471050024E0,9.455642145E0
2.708069390E0,3.837000132E0,-7.872000217E0,1.240950108E0,8.844824170E0
2.710031955E0,3.952050209E0,-7.182000160E0,8.959500194E-1,8.246366084E0
2.711994544E0,3.874950171E0,-6.529950142E0,5.899500251E-1,7.616004774E0
2.713958470E0,3.607050180E0,-5.839950085E0,2.449500114E-1,6.868466241E0
2.715922004E0,3.337950230E0,-5.227050304E0,-9.900000691E-2,6.202722598E0
2.717884432E0,3.108000040E0,-4.729050159E0,-2.140500098E-1,5.662984820E0
2.719847174E0,2.917050123E0,-4.269000053E0,-4.060500264E-1,5.186368624E0
2.721809767E0,2.725050211E0,-3.732000113E0,-4.060500264E-1,4.638814516E0
2.723772404E0,2.649000168E0,-3.426000118E0,-2.910000086E-1,4.340433124E0
2.725735016E0,2.725050211E0,-3.157050133E0,-2.140500098E-1,4.175964751E0
2.727697635E0,2.802000046E0,-2.812050104E0,-6.105000153E-2,3.970208703E0
2.729659369E0,3.070050240E0,-2.620950222E0,2.070000172E-1,4.041959617E0
2.731621380E0,3.376950264E0,-2.391000032E0,4.750500321E-1,4.164894569E0
2.733584098E0,3.568050146E0,-2.199000120E0,7.810500264E-1,4.263405038E0
2.735546609E0,3.798000097E0,-1.969050050E0,1.087950110E0,4.414249458E0
2.737509063E0,3.837000132E0,-1.624050021E0,1.432950020E0,4.406070158E0
2.739471534E0,3.913050175E0,-1.356000066E0,1.585950017E0,4.434629106E0
2.741434245E0,3.913050175E0,-1.126049995E0,1.816050053E0,4.458473736E0
2.743396835E0,3.952050209E0,-8.580000401E-1,2.122950077E0,4.567469973E0
2.745359815E0,3.913050175E0,-5.890500546E-1,2.467950106E0,4.663659439E0
2.747322681E0,3.952050209E0,-3.979500234E-1,2.620950222E0,4.758828127E0
2.749285074E0,3.990000248E0,-2.059500068E-1,2.698050022E0,4.820994846E0
2.751247606E0,3.990000248E0,-1.290000081E-1,2.773950100E0,4.861228460E0
2.753209490E0,3.913050175E0,-1.500000060E-2,2.736000061E0,4.774712871E0
2.755171549E0,3.760050297E0,1.380000114E-1,2.659050226E0,4.607338748E0
2.757134304E0,3.645000219E0,2.530499995E-1,2.659050226E0,4.518916796E0
2.759096855E0,3.492000103E0,4.060500264E-1,2.545050144E0,4.340071610E0
2.761059302E0,3.376950264E0,5.980500579E-1,2.353049994E0,4.159122651E0
2.763021780E0,3.184950113E0,6.739500165E-1,2.122950077E0,3.886519378E0
2.764984553E0,2.992950201E0,7.510500550E-1,1.969950080E0,3.660946655E0
2.766947240E0,2.839950085E0,8.659500480E-1,1.740000129E0,3.441334976E0
2.768909529E0,2.686950207E0,9.430500269E-1,1.585950017E0,3.259491099E0
2.770871934E0,2.649000168E0,9.810000658E-1,1.471050024E0,3.184894220E0
2.772834720E0,2.494950056E0,1.057950020E0,1.240950108E0,2.980602489E0
2.774797394E0,2.380050182E0,1.134000063E0,8.200500607E-1,2.760992053E0
2.776760764E0,2.304000139E0,1.210950017E0,4.750500321E-1,2.645843744E0
2.778723931E0,2.188950062E0,1.249050021E0,2.070000172E-1,2.528730380E0
2.780686768E0,2.035050154E0,1.363950014E0,-4.060500264E-1,2.483277148E0
2.782649702E0,1.843950033E0,1.441050053E0,-9.040500522E-1,2.508801203E0
2.784612443E0,1.804950118E0,1.594050050E0,-1.479000092E0,2.826001019E0
2.786575241E0,1.729050040E0,1.708950043E0,-2.169000149E0,3.258018713E0
2.788538175E0,1.651950121E0,1.900950074E0,-2.974050045E0,3.897117404E0
2.790501076E0,1.729050040E0,2.053950071E0,-3.817050219E0,4.666711616E0
2.792464003E0,1.651950121E0,2.245950222E0,-4.660050392E0,5.430405257E0
2.794426922E0,1.729050040E0,2.322000027E0,-5.617950439E0,6.320020989E0
2.796389667E0,1.843950033E0,2.476050138E0,-6.385050297E0,7.092238244E0
2.798352463E0,2.074050188E0,2.629050016E0,-7.150950432E0,7.896181371E0
2.800315266E0,2.227050066E0,2.743950129E0,-7.803000450E0,8.565969316E0
2.802278071E0,2.419050217E0,2.821050167E0,-8.263050079E0,9.060249699E0
2.804240790E0,2.572050095E0,2.896950245E0,-8.455050468E0,9.300303266E0
2.806203535E0,2.802000046E0,2.896950245E0,-8.493000031E0,9.400775207E0
2.808165948E0,2.992950201E0,2.896950245E0,-8.263050079E0,9.253543551E0
2.810128458E0,3.184950113E0,2.859000206E0,-7.956000328E0,9.034142495E0
2.812090911E0,3.337950230E0,2.743950129E0,-7.534950256E0,8.686003074E0
2.814053381E0,3.492000103E0,2.667000055E0,-6.997950554E0,8.263066378E0
2.816016020E0,3.568050146E0,2.590950012E0,-6.346950531E0,7.728375305E0
2.817978610E0,3.607050180E0,2.514000177E0,-5.695050240E0,7.194762340E0
2.819941051E0,3.682950258E0,2.398950100E0,-4.852050304E0,6.546867674E0
2.821903535E0,3.721950293E0,2.245950222E0,-4.123950005E0,5.992008847E0
2.823866352E0,3.760050297E0,2.169000149E0,-3.357000113E0,5.487439260E0
2.825829071E0,3.682950258E0,2.053950071E0,-2.551950216E0,4.929024590E0
2.827792029E0,3.645000219E0,1.978050113E0,-1.786050081E0,4.515383011E0
2.829754917E0,3.645000219E0,1.786050081E0,-9.810000658E-1,4.175926558E0
2.831716991E0,3.453000069E0,1.671000123E0,-2.910000086E-1,3.847093954E0
2.833679304E0,3.337950230E0,1.479000092E0,3.979500234E-1,3.672562760E0
2.835641990E0,3.070050240E0,1.363950014E0,1.126049995E0,3.543099873E0
2.837604553E0,2.802000046E0,1.249050021E0,1.585950017E0,3.453486306E0
2.839567673E0,2.572050095E0,1.134000063E0,2.161050081E0,3.545636090E0
2.841530630E0,2.304000139E0,9.810000658E-1,2.736000061E0,3.708972109E0
2.843493592E0,2.188950062E0,7.890000343E-1,3.196050167E0,3.953322666E0
2.845456553E0,1.920000076E0,6.739500165E-1,3.541050196E0,4.084072160E0
2.847419524E0,1.614000082E0,5.209500194E-1,3.771000147E0,4.134830987E0
2.849382454E0,1.459950089E0,4.440000355E-1,4.078050137E0,4.354202936E0
2.851345015E0,1.345050097E0,2.910000086E-1,4.269000053E0,4.485331897E0
2.853307685E0,1.192050099E0,1.759500057E-1,4.345950127E0,4.509902920E0
2.855270290E0,9.619500637E-1,1.380000114E-1,4.345950127E0,4.453276820E0
2.857232915E0,6.940500140E-1,2.295000106E-2,4.231050014E0,4.287658609E0
2.859196058E0,3.109500110E-1,-1.500000060E-2,4.000950336E0,4.013043546E0
2.861159057E0,1.189500093E-1,-1.290000081E-1,3.579000235E0,3.583299148E0
2.863121923E0,-1.099500060E-1,-1.290000081E-1,3.310950041E0,3.315285837E0
2.865084828E0,-1.480500102E-1,-1.680000126E-1,3.043050051E0,3.051277834E0
2.867047574E0,-1.480500102E-1,-1.680000126E-1,2.736000061E0,2.745148292E0
2.869010367E0,-1.480500102E-1,-2.059500068E-1,2.506050110E0,2.518853184E0
2.870973132E0,-3.299999982E-2,-2.059500068E-1,2.353049994E0,2.362276164E0
2.872935905E0,4.050000105E-3,-2.440500110E-1,2.008050203E0,2.022830302E0
2.874898718E0,4.200000316E-2,-2.440500110E-1,1.816050053E0,1.832856296E0
2.876861519E0,4.200000316E-2,-2.830500007E-1,1.624950051E0,1.649952718E0
2.878824463E0,8.100000024E-2,-2.830500007E-1,1.510050058E0,1.538482851E0
2.880787365E0,1.189500093E-1,-2.830500007E-1,1.471050024E0,1.502749008E0
2.882749904E0,2.340000123E-1,-2.830500007E-1,1.356000066E0,1.404852123E0
2.884712570E0,2.340000123E-1,-2.830500007E-1,1.240950108E0,1.294152417E0
2.886675310E0,3.109500110E-1,-2.059500068E-1,1.126049995E0,1.186209892E0
2.888638029E0,3.109500110E-1,-2.059500068E-1,1.087950110E0,1.150104672E0
2.890600447E0,3.490500152E-1,-1.680000126E-1,9.349500537E-1,1.012023478E0
2.892562954E0,4.260000288E-1,-1.680000126E-1,8.580000401E-1,9.725554470E-1
2.894525388E0,4.260000288E-1,-1.680000126E-1,8.959500194E-1,1.006194050E0
2.896487857E0,4.639500082E-1,-1.290000081E-1,8.580000401E-1,9.838976984E-1
2.898450318E0,4.639500082E-1,-1.290000081E-1,8.200500607E-1,9.509851283E-1
2.900412781E0,4.639500082E-1,-1.680000126E-1,8.200500607E-1,9.570557541E-1
2.902375601E0,3.870000243E-1,-1.680000126E-1,8.580000401E-1,9.561156268E-1
2.904338317E0,4.260000288E-1,-1.680000126E-1,8.580000401E-1,9.725554470E-1
2.906301062E0,3.490500152E-1,-1.680000126E-1,8.959500194E-1,9.761077577E-1
2.908263822E0,3.109500110E-1,-1.680000126E-1,9.730500579E-1,1.035248921E0
2.910226593E0,2.719500065E-1,-1.290000081E-1,1.126049995E0,1.165584146E0
2.912189361E0,1.960500032E-1,-1.680000126E-1,1.203000069E0,1.230393747E0
2.914151997E0,1.570500135E-1,-1.290000081E-1,1.356000066E0,1.371146195E0
2.916114671E0,8.100000024E-2,-1.290000081E-1,1.395000100E0,1.403291588E0
2.918077424E0,4.200000316E-2,-9.105000645E-2,1.471050024E0,1.474463386E0
2.920040144E0,4.050000105E-3,-9.105000645E-2,1.585950017E0,1.588566638E0
2.922002607E0,-3.299999982E-2,-9.105000645E-2,1.740000129E0,1.742693189E0
2.923965146E0,-7.200000435E-2,-9.105000645E-2,1.930950046E0,1.934435882E0
2.925927954E0,4.050000105E-3,-1.290000081E-1,2.085000038E0,2.088990800E0
2.927890683E0,4.050000105E-3,-1.290000081E-1,2.353049994E0,2.356586870E0
2.929853620E0,4.200000316E-2,-1.290000081E-1,2.506050110E0,2.509719537E0
2.931816510E0,1.189500093E-1,-1.290000081E-1,2.620950222E0,2.626817499E0
2.933779259E0,1.570500135E-1,-1.290000081E-1,2.736000061E0,2.743538234E0
2.935742050E0,2.340000123E-1,-1.680000126E-1,2.812950134E0,2.827661307E0
2.937704771E0,3.109500110E-1,-1.680000126E-1,2.889000177E0,2.910538771E0
2.939667512E0,3.109500110E-1,-1.680000126E-1,2.889000177E0,2.910538771E0
2.941630320E0,3.490500152E-1,-1.290000081E-1,3.004050255E0,3.027010877E0
2.943593115E0,3.870000243E-1,-1.680000126E-1,3.004050255E0,3.033531104E0
2.945555836E0,3.870000243E-1,-1.290000081E-1,3.043050051E0,3.070270938E0
2.947518579E0,5.020500422E-1,-1.290000081E-1,3.004050255E0,3.048444387E0
2.949482298E0,6.169500351E-1,-1.290000081E-1,3.004050255E0,3.069460259E0
2.951445731E0,8.089500666E-1,-5.295000225E-2,3.004050255E0,3.111514398E0
2.953408012E0,9.619500637E-1,-1.500000060E-2,3.004050255E0,3.154344759E0
2.955370641E0,1.077000022E0,2.295000106E-2,2.965950251E0,3.155521611E0
2.957333388E0,1.114950061E0,1.380000114E-1,2.928000212E0,3.136135023E0
2.959296100E0,1.230000019E0,1.380000114E-1,2.736000061E0,3.002938625E0
2.961258879E0,1.345050097E0,2.140500098E-1,2.467950106E0,2.818821543E0
2.963221639E0,1.498950124E0,2.140500098E-1,2.122950077E0,2.607601563E0
2.965184280E0,1.690050125E0,1.759500057E-1,1.816050053E0,2.487019426E0
2.967146953E0,1.882050037E0,2.140500098E-1,1.471050024E0,2.398315643E0
2.969110774E0,2.111999989E0,1.759500057E-1,8.959500194E-1,2.300919119E0
2.971074259E0,2.304000139E0,1.380000114E-1,5.295000225E-2,2.308736526E0
2.973036411E0,2.610000134E0,6.105000153E-2,-7.120500207E-1,2.706075208E0
2.974998954E0,2.917050123E0,2.295000106E-2,-1.671000123E0,3.361837226E0
2.976962136E0,3.300000191E0,6.105000153E-2,-2.704950094E0,4.267374295E0
2.978925120E0,3.607050180E0,-1.500000060E-2,-3.433950186E0,4.980266045E0
2.980888348E0,3.874950171E0,-5.295000225E-2,-3.894000292E0,5.493749248E0
2.982851505E0,4.066950321E0,-9.105000645E-2,-3.931950092E0,5.657614917E0
2.984814389E0,4.219950199E0,-5.295000225E-2,-3.817050219E0,5.690400316E0
2.986777353E0,4.297049999E0,-5.295000225E-2,-3.510000229E0,5.548652450E0
2.988739982E0,4.258049965E0,-9.105000645E-2,-3.127050161E0,5.283722392E0
2.990702689E0,4.335000038E0,-9.105000645E-2,-2.590050220E0,5.050631206E0
2.992665289E0,4.297049999E0,-1.290000081E-1,-1.939050078E0,4.716057135E0
2.994627920E0,4.143000126E0,-9.105000645E-2,-1.326000094E0,4.350978786E0
2.996590532E0,4.027950287E0,-9.105000645E-2,-7.890000343E-1,4.105507846E0
2.998553150E0,3.913050175E0,-1.290000081E-1,-2.520000041E-1,3.923277542E0
3.000515035E0,3.837000132E0,-9.105000645E-2,2.070000172E-1,3.843658299E0
3.002477141E0,3.682950258E0,-1.290000081E-1,5.509500504E-1,3.726165531E0
3.004440338E0,3.529950142E0,-1.680000126E-1,7.050000429E-1,3.603581145E0
3.006403216E0,3.453000069E0,-1.290000081E-1,7.429500222E-1,3.534377627E0
3.008366688E0,3.223050117E0,-1.680000126E-1,3.220500052E-1,3.243453756E0
3.010329986E0,2.878050089E0,-1.680000126E-1,-2.910000086E-1,2.897598544E0
3.012292665E0,2.649000168E0,-2.440500110E-1,-1.210950017E0,2.922868837E0
3.014255526E0,2.572050095E0,-5.130000114E-1,-2.437050104E0,3.580198865E0
3.016218099E0,2.341950178E0,-7.429500222E-1,-3.855000257E0,4.571403762E0
3.018180757E0,2.227050066E0,-1.126049995E0,-5.350050449E0,5.903454954E0
3.020143365E0,2.227050066E0,-1.624050021E0,-6.691050529E0,7.236535611E0
3.022105988E0,2.265000105E0,-2.083950043E0,-7.840950489E0,8.423394674E0
3.024068462E0,2.304000139E0,-2.581950188E0,-8.914050102E0,9.562174054E0
3.026030983E0,2.380050182E0,-3.234000206E0,-9.949050903E0,1.072879351E1
3.027993568E0,2.457000017E0,-3.732000113E0,-1.086900043E1,1.175158902E1
3.029956134E0,2.572050095E0,-4.231050014E0,-1.148205090E1,1.250418805E1
3.031918939E0,2.572050095E0,-4.690050125E0,-1.175100040E1,1.291115883E1
3.033881673E0,2.533950090E0,-4.959000111E0,-1.163595009E1,1.289991936E1
3.035844134E0,2.380050182E0,-5.265000343E0,-1.071600056E1,1.217446243E1
3.037806675E0,2.149950027E0,-5.494950294E0,-9.298050880E0,1.101228923E1
3.039769662E0,1.920000076E0,-5.533950329E0,-7.189950466E0,9.273963243E0
3.041732519E0,1.690050125E0,-5.380050182E0,-4.621950150E0,7.291339560E0
3.043694914E0,1.384050012E0,-5.074050426E0,-2.130000114E0,5.674370683E0
3.045657444E0,1.230000019E0,-4.690050125E0,-2.205000073E-2,4.848706676E0
3.047619493E0,1.230000019E0,-4.384050369E0,1.740000129E0,4.874463882E0
3.049581680E0,1.114950061E0,-4.153950214E0,2.889000177E0,5.181190794E0
3.051544548E0,1.153950095E0,-4.116000175E0,3.847950220E0,5.751502340E0
3.053507216E0,1.114950061E0,-4.116000175E0,4.192950249E0,5.980418286E0
3.055469824E0,1.000050068E0,-4.306950092E0,4.576050282E0,6.363187520E0
3.057432449E0,6.940500140E-1,-5.188950062E0,4.768050194E0,7.081045884E0
3.059394536E0,4.050000105E-3,-7.143000126E0,5.074050426E0,8.761760949E0
3.061356771E0,-8.380500674E-1,-1.009500027E1,5.227050304E0,1.139883385E1
3.063319811E0,-2.677950144E0,-1.358205032E1,5.419050217E0,1.486639207E1
3.065282615E0,-5.437950134E0,-1.749195099E1,5.496000290E0,1.912447830E1
3.067245199E0,-8.887050629E0,-2.239800072E1,5.266050339E0,2.466538853E1
3.069207848E0,-1.206795025E1,-2.764905167E1,4.461000443E0,3.049599984E1
3.071170637E0,-1.513395119E1,-3.259305191E1,4.039050102E0,3.616154639E1
3.073133384E0,-1.743405151E1,-3.746100235E1,4.690950394E0,4.158458687E1
3.075096023E0,-1.919700050E1,-4.209795380E1,5.841000080E0,4.663560683E1
3.077058694E0,-2.004000092E1,-4.642905045E1,7.105050564E0,5.106603671E1
3.079021479E0,-2.046195030E1,-5.033895111E1,8.179050446E0,5.495087147E1
3.080984231E0,-2.034705162E1,-5.363505173E1,9.175050735E0,5.809391396E1
3.082947156E0,-1.873695183E1,-5.562795258E1,1.013295078E1,5.956693011E1
3.084910018E0,-1.632299995E1,-5.673900223E1,1.066995049E1,5.999668778E1
3.086872637E0,-1.333305073E1,-5.762100220E1,1.120695019E1,6.019589578E1
3.088835327E0,-9.462000847E0,-5.880900192E1,1.128300095E1,6.062453528E1
3.090798289E0,-5.437950134E0,-5.988195419E1,1.013295078E1,6.097619561E1
3.092761172E0,-1.911000133E0,-6.057195282E1,8.599950790E0,6.120925211E1
3.094724999E0,1.651950121E0,-6.130005264E1,6.991050243E0,6.171952833E1
3.096688552E0,5.407950401E0,-6.237405396E1,5.572050095E0,6.285551906E1
3.098651368E0,8.934000015E0,-6.356205368E1,3.924000263E0,6.430667774E1
3.100614400E0,1.203900051E1,-6.436695099E1,1.624950051E0,6.550330049E1
3.102578205E0,1.529700089E1,-6.490305328E1,-2.629050016E0,6.673317365E1
3.104541783E0,1.832505035E1,-6.475005341E1,-8.185950279E0,6.778928137E1
3.106504405E0,2.089200020E1,-6.337005234E1,-1.435695076E1,6.825218854E1
3.108467314E0,2.273205185E1,-6.041895294E1,-1.922504997E1,6.735576146E1
3.110430373E0,2.211900139E1,-5.447805405E1,-2.148600197E1,6.259997505E1
3.112393388E0,1.889895058E1,-4.842195129E1,-2.137095070E1,5.620118534E1
3.114356116E0,1.445295048E1,-4.324800110E1,-1.861095047E1,4.925083607E1
3.116318929E0,9.394050598E0,-3.887895203E1,-1.447200108E1,4.253539599E1
3.118281681E0,5.215950012E0,-3.527595139E1,-9.796050072E0,3.698055540E1
3.120244458E0,1.996950150E0,-3.232500076E1,-5.464950085E0,3.284446930E1
3.122205604E0,-7.230000496E-1,-2.971800232E1,-7.120500207E-1,2.973532253E1
3.124167228E0,-3.100050211E0,-2.726505089E1,2.200050116E0,2.752877643E1
3.126130373E0,-4.633050442E0,-2.596200180E1,3.081000090E0,2.655152077E1
3.128093072E0,-5.553000450E0,-2.504205132E1,3.579000235E0,2.589882991E1
3.130055898E0,-6.166050434E0,-2.419905090E1,3.579000235E0,2.522743517E1
3.132018687E0,-6.357000351E0,-2.350905037E1,3.541050196E0,2.460946849E1
3.133981633E0,-5.898000240E0,-2.304900169E1,3.694050074E0,2.407672926E1
3.135944533E0,-5.092950344E0,-2.274300194E1,3.655950069E0,2.359127490E1
3.137907417E0,-4.249050140E0,-2.266605186E1,3.388050079E0,2.330843662E1
3.139870305E0,-3.483000278E0,-2.255100060E1,3.004050255E0,2.301528268E1
3.141833058E0,-2.793000221E0,-2.251305199E1,2.659050226E0,2.284094806E1
3.143795848E0,-2.065050125E0,-2.251305199E1,2.200050116E0,2.271436027E1
3.145758793E0,-1.452000022E0,-2.251305199E1,1.663050056E0,2.262104218E1
3.147721692E0,-9.529500604E-1,-2.255100060E1,1.279950023E0,2.260738848E1
3.149685205E0,-4.930500090E-1,-2.262795067E1,7.429500222E-1,2.264551224E1
3.151648538E0,-7.200000435E-2,-2.266605186E1,9.195000678E-2,2.266635273E1
3.153611382E0,1.960500032E-1,-2.266605186E1,-3.670500219E-1,2.266987138E1
3.155574377E0,3.490500152E-1,-2.266605186E1,-7.890000343E-1,2.268246601E1
3.157538188E0,5.790000558E-1,-2.262795067E1,-1.096050024E0,2.266187808E1
3.159501759E0,6.169500351E-1,-2.251305199E1,-1.210950017E0,2.255403594E1
3.161464572E0,7.320000529E-1,-2.243595123E1,-1.210950017E0,2.248052784E1
3.163427607E0,7.699500322E-1,-2.243595123E1,-1.096050024E0,2.247589946E1
3.165390331E0,7.699500322E-1,-2.232105064E1,-9.420000315E-1,2.235418281E1
3.167353146E0,9.619500637E-1,-2.243595123E1,-7.120500207E-1,2.246784972E1
3.169315907E0,1.039050102E0,-2.235900116E1,-4.440000355E-1,2.238753434E1
3.171278684E0,1.114950061E0,-2.232105064E1,-2.140500098E-1,2.234990454E1
3.173240551E0,1.269000053E0,-2.216805077E1,9.195000678E-2,2.220453311E1
3.175202684E0,1.306950092E0,-2.205300140E1,3.220500052E-1,2.209404231E1
3.177165562E0,1.384050012E0,-2.174595070E1,5.130000114E-1,2.179598897E1
3.179128221E0,1.384050012E0,-2.147805023E1,5.899500251E-1,2.153068223E1
3.181091009E0,1.345050097E0,-2.113305092E1,7.429500222E-1,2.118884083E1
3.183053759E0,1.384050012E0,-2.082600021E1,1.011000037E0,2.089641118E1
3.185016488E0,1.306950092E0,-2.025105095E1,1.126049995E0,2.032439843E1
3.186979223E0,1.345050097E0,-1.975305176E1,1.126049995E0,1.983078925E1
3.188942182E0,1.306950092E0,-1.929300117E1,1.126049995E0,1.936997681E1
3.190905072E0,1.269000053E0,-1.879500008E1,1.165050030E0,1.887378421E1
3.192867821E0,1.000050068E0,-1.841205025E1,1.279950023E0,1.848355936E1
3.194830612E0,1.306950092E0,-1.791300011E1,1.395000100E0,1.801470834E1
3.196793197E0,1.459950089E0,-1.733895111E1,1.585950017E0,1.747243307E1
3.198755843E0,1.614000082E0,-1.680195045E1,1.777950048E0,1.697267338E1
3.200718619E0,1.729050040E0,-1.630395126E1,1.777950048E0,1.649149924E1
3.202681366E0,1.959000111E0,-1.580505085E1,1.930950046E0,1.604262703E1
3.204644139E0,2.035050154E0,-1.523100090E1,2.046000004E0,1.550196547E1
3.206606904E0,1.996950150E0,-1.461705112E1,1.930950046E0,1.487866128E1
3.208569495E0,2.074050188E0,-1.408095074E1,1.855050087E0,1.435325986E1
3.210532137E0,1.996950150E0,-1.350600052E1,1.663050056E0,1.375374841E1
3.212494762E0,1.996950150E0,-1.285395050E1,1.510050058E0,1.309549940E1
3.214457382E0,1.804950118E0,-1.227900028E1,1.432950020E0,1.249339980E1
3.216419861E0,1.729050040E0,-1.166595078E1,1.318050027E0,1.186681412E1
3.218382382E0,1.614000082E0,-1.109100056E1,1.126049995E0,1.126424779E1
3.220345012E0,1.384050012E0,-1.059300041E1,8.959500194E-1,1.072054003E1
3.222307610E0,1.459950089E0,-1.017105007E1,7.429500222E-1,1.030212059E1
3.224271071E0,1.306950092E0,-9.520050049E0,5.509500504E-1,9.625124281E0
3.226234289E0,1.192050099E0,-8.983050346E0,3.220500052E-1,9.067518578E0
3.228197162E0,1.153950095E0,-8.523000717E0,3.600000143E-1,8.608294956E0
3.230160137E0,1.192050099E0,-7.948050499E0,2.449500114E-1,8.040677253E0
3.232122555E0,1.153950095E0,-7.450050354E0,1.300500035E-1,7.540010882E0
3.234085137E0,1.192050099E0,-6.952050209E0,5.295000225E-2,7.053707483E0
3.236047891E0,1.230000019E0,-6.415050507E0,-6.105000153E-2,6.532189537E0
3.238010596E0,1.269000053E0,-5.917050362E0,-1.369500011E-1,6.053148059E0
3.239973197E0,1.306950092E0,-5.533950329E0,-2.205000073E-2,5.686229945E0
3.241935828E0,1.306950092E0,-5.035050392E0,-6.105000153E-2,5.202266631E0
3.243898665E0,1.345050097E0,-4.614000320E0,-9.900000691E-2,4.807073925E0
3.245861442E0,1.422000051E0,-4.116000175E0,-1.369500011E-1,4.356867784E0
3.247824166E0,1.459950089E0,-3.732000113E0,-2.205000073E-2,4.007463700E0
3.249786905E0,1.498950124E0,-3.349050045E0,5.295000225E-2,3.669576458E0
3.251748643E0,1.498950124E0,-2.851050138E0,2.449500114E-1,3.230377513E0
3.253710674E0,1.690050125E0,-2.467050076E0,3.979500234E-1,3.016781351E0
3.255673164E0,1.767000079E0,-2.008050203E0,5.509500504E-1,2.730952372E0
3.257635519E0,1.767000079E0,-1.624050021E0,7.810500264E-1,2.523859524E0
3.259598194E0,1.729050040E0,-1.203000069E0,9.349500537E-1,2.304550891E0
3.261560764E0,1.729050040E0,-7.810500264E-1,1.011000037E0,2.149831217E0
3.263523568E0,1.651950121E0,-3.589500189E-1,1.165050030E0,2.053077176E0
3.265486303E0,1.729050040E0,-1.680000126E-1,1.240950108E0,2.134899345E0
3.267447862E0,1.843950033E0,6.105000153E-2,1.240950108E0,2.223473858E0
3.269409766E0,1.959000111E0,2.910000086E-1,1.165050030E0,2.297760651E0
3.271372438E0,2.188950062E0,5.209500194E-1,1.087950110E0,2.499305251E0
3.273334899E0,2.419050217E0,7.510500550E-1,1.011000037E0,2.727269919E0
3.275297722E0,2.457000017E0,9.430500269E-1,8.200500607E-1,2.756569342E0
3.277260438E0,2.419050217E0,1.134000063E0,6.660000086E-1,2.753418985E0
